server_time,timestamp,label,accel_x,accel_y,accel_z,gyro_x,gyro_y,gyro_z
2025-05-29 06:13:54.082,840889,walk,-0.0254,0.0415,1.2798,-2.3193,2.9907,84.8389
2025-05-29 06:13:54.129,840939,walk,-0.1504,-0.0225,1.873,-7.4463,-1.77,67.8101
2025-05-29 06:13:54.183,840989,walk,-0.0454,0.2764,1.6279,-4.0283,6.4087,88.6841
2025-05-29 06:13:54.230,841039,walk,0.0625,0.104,0.6909,-0.3662,-3.2959,103.1494
2025-05-29 06:13:54.279,841089,walk,-0.3711,0.0195,1.5859,-51.0864,-18.2495,80.8105
2025-05-29 06:13:54.331,841139,walk,-0.0581,-0.0054,0.8955,17.4561,7.7515,88.9893
2025-05-29 06:13:54.380,841189,walk,-0.0513,0.084,1.2021,-4.7607,1.8921,84.8389
2025-05-29 06:13:54.430,841239,walk,-0.1367,0.7192,1.666,4.5166,6.0425,60.1807
2025-05-29 06:13:54.481,841289,walk,-0.21,0.4199,1.6812,-7.2632,4.8218,86.1206
2025-05-29 06:13:54.530,841339,walk,0.0273,0.0879,0.6104,-5.249,-3.54,102.356
2025-05-29 06:13:54.579,841389,walk,-0.5386,0.3623,1.6538,-58.6548,-16.4185,75.7446
2025-05-29 06:13:54.630,841439,walk,-0.1055,0.3442,0.9941,21.2402,6.7749,88.623
2025-05-29 06:13:54.680,841489,walk,-0.0195,-0.2158,1.082,-0.3052,-3.8452,86.792
2025-05-29 06:13:54.730,841539,walk,-0.1543,0.2485,1.5435,2.0752,15.1978,61.4014
2025-05-29 06:13:54.780,841589,walk,-0.1504,0.4985,1.6621,-3.8452,2.2583,90.0269
2025-05-29 06:13:54.830,841639,walk,-0.0366,-0.0688,0.7964,-5.9204,-3.1128,101.6235
2025-05-29 06:13:54.880,841689,walk,-0.4014,0.688,1.1851,-49.9268,-19.104,75.1953
2025-05-29 06:13:54.930,841739,walk,-0.0659,0.106,0.5991,19.5313,1.8311,86.0596
2025-05-29 06:13:54.981,841789,walk,-0.0254,-0.0078,1.1831,-1.5259,-3.9062,86.731
2025-05-29 06:13:55.031,841839,walk,-0.2471,-0.248,1.8721,10.5591,21.6064,59.9365
2025-05-29 06:13:55.081,841889,walk,-0.1523,0.5835,1.688,-7.1411,4.8828,87.9517
2025-05-29 06:13:55.130,841939,walk,-0.0522,0.1294,0.8477,-9.5215,-7.2021,102.2949
2025-05-29 06:13:55.182,841989,walk,-0.3506,0.2065,1.27,-36.8652,-19.4702,79.7729
2025-05-29 06:13:55.230,842039,walk,-0.0322,0.0635,0.7856,15.8691,-2.3193,82.8857
2025-05-29 06:13:55.283,842089,walk,-0.0161,0.0728,1.0464,-3.7231,-1.8311,87.4634
2025-05-29 06:13:55.330,842139,walk,-0.2754,-0.3213,1.9097,11.0474,20.0806,59.6313
2025-05-29 06:13:55.379,842189,walk,-0.1074,0.6704,1.6733,-14.8926,-0.9766,87.8296
2025-05-29 06:13:55.430,842239,walk,0.0928,0.0161,0.5,-13.6719,-7.2632,101.7456
2025-05-29 06:13:55.489,842289,walk,-0.1836,-0.0283,1.0273,-24.353,-11.2915,77.9419
2025-05-29 06:13:55.531,842339,walk,-0.0107,0.1519,0.2485,9.3384,-4.4556,77.3926
2025-05-29 06:13:55.579,842389,walk,-0.0591,-0.0122,0.9468,-1.77,1.77,86.731
2025-05-29 06:13:55.630,842439,walk,-0.2227,-0.4023,1.7744,5.7373,24.5361,61.5845
2025-05-29 06:13:55.680,842489,walk,-0.1729,0.6362,1.7949,-12.7563,2.4414,85.6323
2025-05-29 06:13:55.732,842539,walk,0.0542,0.1167,0.6733,-14.0991,-5.8594,103.0273
2025-05-29 06:13:55.781,842589,walk,-0.0933,0.1836,0.9116,-25.0854,-10.437,78.186
2025-05-29 06:13:55.830,842639,walk,-0.0264,0.2451,0.5952,5.6763,-1.8921,73.3643
2025-05-29 06:13:55.881,842689,walk,-0.0146,-0.0552,1.0405,-3.479,0.3662,75.2563
2025-05-29 06:13:55.931,842740,walk,-0.0181,-0.1606,1.3228,3.418,19.6533,31.0669
2025-05-29 06:13:55.980,842789,walk,0.0464,0.1196,1.1533,-10.498,2.0142,30.7007
2025-05-29 06:13:56.031,842839,walk,0.0225,-0.2324,0.8521,-10.7422,-6.1035,30.4565
2025-05-29 06:13:56.080,842889,walk,-0.1611,-0.2075,1.4585,-10.1318,-10.2539,6.958
2025-05-29 06:13:56.131,842939,walk,0.0195,0.145,0.9668,0.1831,0.061,-2.7466
2025-05-29 06:13:56.180,842989,walk,-0.0454,0.0449,1.2056,-4.0894,0.8545,-0.061
2025-05-29 06:13:56.233,843039,walk,-0.0049,-0.1978,0.6597,7.2021,5.0049,0.7935
2025-05-29 06:13:56.280,843089,walk,-0.0684,-0.083,0.4434,-10.6201,-3.9673,7.019
2025-05-29 06:13:56.330,843139,walk,0.0498,-0.0684,0.4365,-4.2114,-5.249,7.9956
2025-05-29 06:13:56.379,843189,walk,-0.2671,-0.8936,1.7192,-10.1318,-3.6621,-1.5869
2025-05-29 06:13:56.430,843239,walk,-0.0723,0.1167,1.3418,-4.5166,3.54,-6.3477
2025-05-29 06:13:56.480,843289,walk,-0.0049,0.0034,1.2163,-6.8359,0.9766,-3.3569
2025-05-29 06:13:56.530,843339,walk,-0.1714,0.1226,1.1367,-1.9531,7.019,-1.2207
2025-05-29 06:13:56.579,843389,walk,0.019,-0.0303,0.6602,-7.6904,-1.5869,5.7983
2025-05-29 06:13:56.629,843439,walk,0.0566,-0.0024,0.6284,-3.8452,-3.418,3.7842
2025-05-29 06:13:56.680,843489,walk,-0.4033,-1.3208,1.9429,-10.5591,-2.5635,-16.1133
2025-05-29 06:13:56.730,843539,walk,-0.0962,-0.1748,1.8726,3.7842,8.7891,-52.2461
2025-05-29 06:13:56.780,843589,walk,-0.0547,-0.1201,1.4375,-7.0801,2.0142,-65.3076
2025-05-29 06:13:56.830,843639,walk,0.123,0.1094,0.48,-13.7329,0.2441,-68.6035
2025-05-29 06:13:56.880,843689,walk,0.0498,-0.0352,0.1821,6.958,-1.3428,-63.3545
2025-05-29 06:13:56.930,843739,walk,-0.0581,0.0176,0.7866,2.5024,4.0894,-70.2515
2025-05-29 06:13:56.980,843789,walk,-0.0024,-0.0449,2.0576,-1.9531,-15.7471,-76.0498
2025-05-29 06:13:57.030,843839,walk,-0.0898,-0.4102,2.0835,-0.9155,10.1929,-81.7871
2025-05-29 06:13:57.079,843889,walk,-0.0889,0.1089,1.4692,-4.4556,1.6479,-91.6748
2025-05-29 06:13:57.129,843939,walk,0.1069,1.2305,0.2046,-29.0527,0.6714,-91.1865
2025-05-29 06:13:57.179,843989,walk,-0.0664,0.3457,0.0015,22.8271,-4.8828,-80.5664
2025-05-29 06:13:57.231,844039,walk,-0.042,0.0996,0.5576,2.7466,-0.4272,-77.7588
2025-05-29 06:13:57.280,844089,walk,-0.0952,-0.1143,1.7925,7.2021,-28.6865,-80.6885
2025-05-29 06:13:57.331,844139,walk,-0.1099,-0.0527,1.6948,5.9814,4.5166,-86.6699
2025-05-29 06:13:57.379,844189,walk,-0.0649,0.0674,1.1875,-5.3101,-1.2817,-92.8345
2025-05-29 06:13:57.433,844239,walk,0.1904,0.002,0.231,-21.7896,5.0049,-86.5479
2025-05-29 06:13:57.479,844289,walk,0.0444,-0.0498,0.1787,24.5361,-1.5259,-76.5991
2025-05-29 06:13:57.529,844339,walk,-0.0864,0.0537,0.8228,6.0425,2.6855,-78.2471
2025-05-29 06:13:57.579,844389,walk,-0.0112,0.1362,1.5791,15.8691,-36.1938,-69.3359
2025-05-29 06:13:57.630,844439,walk,-0.1304,-0.1655,1.6587,3.7231,-0.5493,-76.5381
2025-05-29 06:13:57.679,844489,walk,-0.0898,0.0767,1.1152,-9.3384,-3.3569,-85.8154
2025-05-29 06:13:57.730,844539,walk,0.061,-0.3511,0.3735,-17.5781,6.5918,-77.5757
2025-05-29 06:13:57.779,844589,walk,0.0205,0.0605,0.4648,14.1602,6.4087,-68.7256
2025-05-29 06:13:57.832,844639,walk,-0.0298,0.3486,0.9785,3.479,-1.5259,-51.0864
2025-05-29 06:13:57.879,844689,walk,-0.2622,0.6372,1.7671,13.6719,-25.2075,-19.9585
2025-05-29 06:13:57.929,844739,walk,0.0176,-0.187,1.374,1.0986,-2.3804,-15.8691
2025-05-29 06:13:57.979,844789,walk,-0.0317,0.1309,1.3159,-7.9956,-2.2583,-17.7002
2025-05-29 06:13:58.029,844839,walk,-0.0688,-0.3975,0.6826,-10.437,3.2349,-12.3901
2025-05-29 06:13:58.079,844889,walk,0.0015,0.0444,0.957,1.8921,2.6245,1.77
2025-05-29 06:13:58.129,844939,walk,0.0889,0.0015,0.7256,-2.9297,0.4883,6.7139
2025-05-29 06:13:58.180,844989,walk,-0.1074,0.376,1.8501,-9.2163,-11.5967,-3.2959
2025-05-29 06:13:58.232,845039,walk,-0.0039,0.0952,1.4731,-2.7466,5.249,-8.8501
2025-05-29 06:13:58.283,845089,walk,-0.0132,0.0171,1.4375,-6.7139,1.9531,-6.8359
2025-05-29 06:13:58.329,845139,walk,0.1074,-0.5645,0.7881,-17.9443,4.2114,-4.2114
2025-05-29 06:13:58.381,845189,walk,0.0371,-0.0947,0.958,-2.0752,0.8545,4.1504
2025-05-29 06:13:58.429,845239,walk,0.1055,0.0029,0.5635,-6.5308,-4.6997,6.2866
2025-05-29 06:13:58.480,845289,walk,-0.0278,0.0479,1.5259,-6.3477,-4.4556,-1.0986
2025-05-29 06:13:58.530,845339,walk,0.0498,0.0186,1.5469,-6.5918,7.3853,-6.5918
2025-05-29 06:13:58.580,845389,walk,0.0181,0.0557,1.3911,-7.6294,0.7935,-5.4321
2025-05-29 06:13:58.631,845439,walk,0.2534,-0.6606,1.2466,-12.6953,5.9814,-0.7935
2025-05-29 06:13:58.680,845489,walk,0.0557,-0.1113,0.9331,-4.6997,-1.77,5.9204
2025-05-29 06:13:58.731,845539,walk,0.1436,-0.1323,0.479,-8.1177,-5.3711,6.2256
2025-05-29 06:13:58.780,845589,walk,0.251,0.228,1.4751,-14.3433,-1.3428,-6.8359
2025-05-29 06:13:58.829,845639,walk,0.1367,0.1196,1.0313,-8.2397,7.019,-5.7373
2025-05-29 06:13:58.879,845689,walk,0.0942,-0.043,1.0571,-6.3477,3.0518,-1.6479
2025-05-29 06:13:58.929,845739,walk,-0.0947,-0.0806,2.0537,-3.54,19.165,-2.2583
2025-05-29 06:13:58.979,845789,walk,0.104,0.25,0.9771,-3.1738,2.0752,5.6763
2025-05-29 06:13:59.029,845839,walk,0.0986,0.0684,0.7412,-2.5635,-5.3101,6.4087
2025-05-29 06:13:59.122,845889,walk,0.0586,0.6929,1.29,-22.583,-0.7324,-9.0942
2025-05-29 06:13:59.131,845939,walk,0.0557,0.0718,1.1479,-4.2114,8.606,-3.0518
2025-05-29 06:13:59.203,845989,walk,-0.0054,-0.0952,1.2856,-2.6245,-0.3662,-3.0518
2025-05-29 06:13:59.291,846039,walk,-0.4409,0.3984,2.8047,-3.1128,39.856,-2.5024
2025-05-29 06:13:59.591,846089,walk,0.0293,0.3877,1.2842,-1.5259,5.4321,3.54
2025-05-29 06:13:59.592,846139,walk,0.1045,-0.085,0.7607,0.4883,-9.3994,6.7139
2025-05-29 06:13:59.594,846189,walk,-0.3257,0.1294,2.1133,-31.3721,-2.1973,-10.376
2025-05-29 06:13:59.921,846239,walk,0.084,-0.0581,0.6084,-0.1221,11.2915,-2.6245
2025-05-29 06:13:59.923,846289,walk,0.1636,0.1123,1.1802,-3.7231,-7.0801,-5.7983
2025-05-29 06:13:59.924,846339,walk,0.1782,-0.2568,1.2124,-4.5166,26.8555,-12.5122
2025-05-29 06:13:59.925,846389,walk,0.02,-0.0044,1.2681,0.9766,6.2866,6.6528
2025-05-29 06:13:59.926,846439,walk,0.123,0.186,1.1533,-2.6245,-12.9395,8.7891
2025-05-29 06:13:59.927,846489,walk,-0.4878,-0.5483,2.8081,-27.2217,-15.2588,-7.0801
2025-05-29 06:14:00.133,846539,walk,-0.1069,-0.0825,2.1333,1.8311,15.7471,-3.9062
2025-05-29 06:14:00.134,846589,walk,0.0874,0.0977,1.0811,-3.2959,-11.7798,-7.6904
2025-05-29 06:14:00.136,846639,walk,0.0469,0.1304,0.9307,-10.8643,25.3296,-16.2964
2025-05-29 06:14:00.137,846689,walk,0.0293,0.3018,1.1577,-0.2441,1.5869,3.9673
2025-05-29 06:14:00.138,846739,walk,0.0596,0.3779,1.2173,-2.0142,-14.7705,5.7983
2025-05-29 06:14:00.139,846789,walk,-0.3662,-0.6851,2.7046,-29.8462,-13.6719,-5.5542
2025-05-29 06:14:00.354,846839,walk,-0.1567,-0.0005,1.9424,-3.418,18.2495,-8.1787
2025-05-29 06:14:00.355,846889,walk,0.0771,0.1138,1.2217,-6.2866,-5.6763,-6.958
2025-05-29 06:14:00.357,846939,walk,-0.2339,0.6328,0.5298,-10.6201,-1.2207,-6.5918
2025-05-29 06:14:00.358,846989,walk,-0.0508,0.1411,1.0493,0.1831,8.1787,2.4414
2025-05-29 06:14:00.359,847039,walk,0.0039,0.1895,1.0049,-2.4414,-5.7983,3.0518
2025-05-29 06:14:00.360,847089,walk,-0.458,-0.4468,2.2485,-32.4097,-5.6152,-8.5449
2025-05-29 06:14:00.361,847139,walk,-0.2334,-0.0391,1.7197,-9.4604,15.5029,-3.9673
2025-05-29 06:14:00.379,847189,walk,0.0117,-0.0562,1.1934,-1.5869,-5.7983,-2.1973
2025-05-29 06:14:00.543,847239,walk,-0.2871,-0.0937,2.0557,-3.8452,19.8364,-2.9297
2025-05-29 06:14:01.158,847289,walk,-0.0039,-0.2251,1.5679,-1.4648,6.1035,2.5024
2025-05-29 06:14:01.160,847339,walk,-0.0273,-0.0688,1.1094,-6.4697,-7.8125,6.2866
2025-05-29 06:14:01.161,847389,walk,-0.5898,-0.3457,2.6733,-28.8086,-4.0894,-10.9253
2025-05-29 06:14:01.162,847439,walk,-0.0708,-0.0635,1.6128,-7.7515,13.7329,-6.1646
2025-05-29 06:14:01.163,847489,walk,0.0933,-0.0508,0.9795,-3.1738,-1.8921,-2.3804
2025-05-29 06:14:01.164,847539,walk,-0.1904,-0.3193,1.9331,-1.0986,15.5029,-0.1221
2025-05-29 06:14:01.164,847589,walk,0.0625,-0.0981,0.9946,-0.061,2.6245,2.7466
2025-05-29 06:14:01.165,847639,walk,0.1094,-0.1128,0.7568,-1.77,-6.958,5.3711
2025-05-29 06:14:01.362,847689,walk,-0.395,-0.4375,2.3467,-22.1558,-3.9062,-9.5825
2025-05-29 06:14:01.364,847739,walk,-0.0669,-0.0757,1.3701,-8.9722,9.8877,-7.0801
2025-05-29 06:14:01.365,847789,walk,0.1055,-0.0747,0.9092,-7.8125,-2.8687,-5.0049
2025-05-29 06:14:01.366,847839,walk,0.0049,-0.3311,1.7998,-4.2725,19.043,-1.8921
2025-05-29 06:14:01.367,847889,walk,0.0117,-0.3999,1.0928,-3.54,1.0986,6.4087
2025-05-29 06:14:01.369,847939,walk,0.0854,0.0288,0.9888,-3.2959,-6.897,4.4556
2025-05-29 06:14:01.370,847989,walk,-0.3643,-0.3672,2.5137,-14.9536,-0.8545,-8.1787
2025-05-29 06:14:01.371,848039,walk,-0.0605,0.0181,1.4746,-9.8267,9.7656,-8.9722
2025-05-29 06:14:01.379,848089,walk,0.1592,-0.042,0.8174,-6.5918,-3.8452,-5.0659
2025-05-29 06:14:01.381,848139,walk,0.0195,-0.0669,1.9536,-2.2583,17.8833,-2.3193
2025-05-29 06:14:01.385,848189,walk,0.0308,-0.3604,1.0503,-3.6621,0.3052,7.9956
2025-05-29 06:14:01.429,848239,walk,0.1357,0.1343,0.5254,-3.54,-10.3149,1.9531
2025-05-29 06:14:01.578,848289,walk,-0.2339,-0.4341,2.2124,-13.4888,3.7842,-5.3711
2025-05-29 06:14:01.774,848339,walk,-0.0303,0.1143,1.4077,-9.7046,11.4136,-7.4463
2025-05-29 06:14:01.776,848389,walk,0.1489,-0.1313,0.9741,-7.7515,-3.1738,-4.9438
2025-05-29 06:14:01.777,848439,walk,-0.0605,0.1157,2.1743,-2.6245,15.2588,-4.5776
2025-05-29 06:14:01.974,848489,walk,0.0049,0.02,1.2515,-5.249,0.7935,5.7983
2025-05-29 06:14:01.976,848539,walk,0.1382,-0.2749,0.7598,-2.6855,-10.1929,4.2114
2025-05-29 06:14:01.977,848589,walk,-0.126,-0.6865,1.9863,-8.2397,5.5542,-3.9673
2025-05-29 06:14:01.978,848639,walk,0.0352,0.2671,1.1455,-8.0566,8.3618,-10.7422
2025-05-29 06:14:02.071,848689,walk,0.1167,-0.1182,1.0288,-6.1646,-2.5024,-2.4414
2025-05-29 06:14:02.073,848739,walk,-0.4717,0.8315,2.6025,-2.5024,12.0239,-2.5024
2025-05-29 06:14:02.074,848789,walk,-0.082,-0.1318,1.7158,-2.2583,7.7515,3.9673
2025-05-29 06:14:02.075,848839,walk,0.1953,0.103,0.6572,-0.2441,-8.5449,2.8076
2025-05-29 06:14:02.079,848889,walk,0.0566,-0.4497,1.897,-8.4229,12.6953,5.3101
2025-05-29 06:14:02.129,848940,walk,-0.0317,0.293,1.4287,-7.3853,3.479,-9.2163
2025-05-29 06:14:02.179,848989,walk,0.167,-0.0815,1.1553,-6.4087,-7.5073,-4.8828
2025-05-29 06:14:02.229,849039,walk,-0.2515,0.8867,2.2227,-3.6011,14.8315,-4.5166
2025-05-29 06:14:02.279,849089,walk,-0.0581,0.0503,1.8135,-3.9062,11.5967,3.2959
2025-05-29 06:14:02.329,849139,walk,0.0869,0.0771,0.9287,-1.4038,-7.5684,3.6011
2025-05-29 06:14:02.381,849189,walk,-0.332,0.0103,1.7778,-16.7236,-4.3945,-11.4746
2025-05-29 06:14:02.429,849239,walk,-0.0845,-0.0156,1.2832,-5.9814,9.9487,-4.9438
2025-05-29 06:14:02.479,849289,walk,0.0923,-0.231,0.9502,-1.709,-5.5542,-2.6855
2025-05-29 06:14:02.529,849339,walk,-0.1392,0.6274,1.835,-2.6245,16.3574,-4.8828
2025-05-29 06:14:02.579,849389,walk,-0.0229,0.1831,1.4019,-3.0518,4.5776,4.3945
2025-05-29 06:14:02.630,849439,walk,0.1187,0.2681,0.7886,-3.54,-7.6904,4.0894
2025-05-29 06:14:02.682,849489,walk,-0.4165,0.4634,2.1001,-17.7612,1.4648,-13.1836
2025-05-29 06:14:02.729,849539,walk,-0.0479,0.0884,1.4595,-6.7749,13.7939,-7.5684
2025-05-29 06:14:02.779,849589,walk,-0.0093,-0.0552,1.21,-4.9438,-0.9766,-4.8828
2025-05-29 06:14:02.829,849639,walk,-0.1831,0.6309,2.2515,-6.0425,21.9727,-3.9673
2025-05-29 06:14:02.879,849689,walk,-0.001,-0.1714,1.3276,-6.7139,1.8311,7.9956
2025-05-29 06:14:02.929,849739,walk,0.0801,0.1147,0.7559,-4.3335,-10.1929,5.7373
2025-05-29 06:14:02.983,849789,walk,-0.2915,0.2559,1.9214,-13.6108,5.6152,-12.207
2025-05-29 06:14:03.029,849839,walk,-0.1118,0.21,1.5625,-8.7891,12.7563,-8.667
2025-05-29 06:14:03.079,849889,walk,0.0322,-0.0591,1.1519,-5.3711,-2.3193,-3.3569
2025-05-29 06:14:03.129,849939,walk,-0.3374,1.1211,2.4336,-0.6104,15.7471,-3.2959
2025-05-29 06:14:03.179,849989,walk,-0.0713,0.335,1.6055,-6.2866,8.1177,1.4038
2025-05-29 06:14:03.229,850039,walk,0.1094,0.061,0.8643,-0.3662,-8.606,4.2725
2025-05-29 06:14:03.279,850089,walk,-0.249,-0.0117,0.9121,-8.4839,-2.9297,-6.897
2025-05-29 06:14:03.329,850139,walk,-0.0464,-0.0176,1.3726,-7.1411,8.9111,-5.6152
2025-05-29 06:14:03.381,850189,walk,0.1782,0.0039,0.8794,-2.8076,-3.7842,-3.479
2025-05-29 06:14:03.429,850239,walk,-0.3096,1.0444,2.4985,-4.6997,20.874,-6.6528
2025-05-29 06:14:03.479,850289,walk,-0.0703,0.2637,1.7163,-4.2114,6.5308,3.0518
2025-05-29 06:14:03.529,850339,walk,0.0869,0.249,0.7754,0.6714,-7.9956,4.0283
2025-05-29 06:14:03.580,850389,walk,-0.3311,0.1455,1.6963,-11.9019,7.6904,-11.4746
2025-05-29 06:14:03.634,850439,walk,0.0557,-0.1323,1.0005,-9.5215,5.5542,-6.8359
2025-05-29 06:14:03.681,850489,walk,0.1611,-0.27,0.8691,-3.8452,-4.9438,-2.6245
2025-05-29 06:14:03.729,850539,walk,-0.1416,0.8447,2.1699,-3.8452,22.7661,-4.7607
2025-05-29 06:14:03.782,850589,walk,0.0107,-0.0322,1.3403,-1.2817,4.1504,4.9438
2025-05-29 06:14:03.829,850639,walk,0.0898,-0.0029,0.6792,-1.77,-10.1929,6.1646
2025-05-29 06:14:03.879,850689,walk,-0.4409,-0.0854,1.7559,-18.8599,-0.061,-11.3525
2025-05-29 06:14:03.929,850739,walk,-0.1299,0.0068,1.3232,-6.4087,8.1177,-6.8359
2025-05-29 06:14:03.980,850789,walk,0.1401,-0.1729,0.8389,-4.1504,-5.188,-2.3193
2025-05-29 06:14:04.034,850839,walk,-0.1445,0.5562,1.6953,-5.0659,19.4702,1.5869
2025-05-29 06:14:04.079,850889,walk,-0.0337,0.1499,1.2075,-1.5869,1.3428,5.3101
2025-05-29 06:14:04.129,850939,walk,0.1001,0.0522,0.6445,-1.8311,-9.7046,3.479
2025-05-29 06:14:04.181,850989,walk,-0.3638,0.3677,2.0713,-19.4092,6.5918,-11.8408
2025-05-29 06:14:04.229,851039,walk,0.0493,0.4214,1.0869,-7.2632,9.2773,-9.2773
2025-05-29 06:14:04.279,851089,walk,0.0649,0.0259,0.8672,-8.1787,-5.5542,-3.6621
2025-05-29 06:14:04.329,851139,walk,-0.1099,0.5576,2.1006,-5.6763,24.5361,0.3052
2025-05-29 06:14:04.379,851189,walk,0.0132,-0.0098,1.0967,-3.1128,2.0142,3.6011
2025-05-29 06:14:04.429,851239,walk,0.0698,-0.0054,0.5703,-4.4556,-8.9111,4.6997
2025-05-29 06:14:04.479,851289,walk,-0.4204,0.4414,1.8013,-19.9585,0.3052,-12.2681
2025-05-29 06:14:04.530,851339,walk,0.0825,0.0156,0.9907,-5.127,9.0332,-6.1035
2025-05-29 06:14:04.579,851389,walk,0.1587,-0.2202,0.9365,-7.6904,-0.4883,-4.0283
2025-05-29 06:14:04.631,851439,walk,-0.4023,0.1504,2.4868,-3.7842,17.0288,3.1128
2025-05-29 06:14:04.679,851489,walk,-0.0903,0.23,1.3633,-3.3569,5.3101,5.9814
2025-05-29 06:14:04.730,851539,walk,0.0894,0.0928,0.5,-2.7466,-6.958,3.7842
2025-05-29 06:14:04.779,851589,walk,-0.3437,0.4907,1.4863,-17.7612,-3.1128,-14.0381
2025-05-29 06:14:04.832,851639,walk,-0.0601,0.3262,1.1768,-5.127,10.1929,-6.0425
2025-05-29 06:14:04.879,851689,walk,0.0908,-0.1885,0.9585,-7.5684,-1.1597,-2.3804
2025-05-29 06:14:04.930,851739,walk,-0.3599,0.9751,2.4346,-4.8218,22.0947,-2.1973
2025-05-29 06:14:04.979,851789,walk,0.0161,-0.0186,1.106,-2.3804,1.8921,4.8828
2025-05-29 06:14:05.030,851839,walk,0.1313,-0.0571,0.5459,-4.3335,-10.5591,4.2114
2025-05-29 06:14:05.080,851889,walk,-0.3955,-1.062,1.8223,-9.5825,11.3525,-4.5166
2025-05-29 06:14:05.129,851939,walk,-0.0937,0.1304,1.1973,-11.9019,7.2632,-6.2256
2025-05-29 06:14:05.179,851989,walk,0.0981,-0.2158,0.7891,-5.9204,-4.6997,-1.5869
2025-05-29 06:14:05.230,852039,walk,-0.4834,0.4248,2.6724,-5.0049,19.165,1.9531
2025-05-29 06:14:05.280,852089,walk,-0.0308,-0.0083,1.5635,-4.4556,7.6294,4.7607
2025-05-29 06:14:05.329,852139,walk,0.0361,0.2837,0.7212,-0.4272,-8.7891,0.7935
2025-05-29 06:14:05.379,852189,walk,-0.0664,-0.4526,1.7461,-7.2632,15.7471,-5.6763
2025-05-29 06:14:05.429,852239,walk,-0.0151,0.0879,0.9946,-10.7422,5.0049,-5.4321
2025-05-29 06:14:05.479,852289,walk,0.0122,0.1211,0.7969,-6.4697,-6.897,-3.9673
2025-05-29 06:14:05.529,852339,walk,-0.3364,0.8936,2.4385,-6.958,21.6675,-2.4414
2025-05-29 06:14:05.579,852389,walk,0.0532,-0.0576,1.2515,-0.7324,2.6855,3.1738
2025-05-29 06:14:05.629,852439,walk,0.0664,0.1348,0.6299,-1.4038,-8.667,2.8687
2025-05-29 06:14:05.683,852489,walk,-0.0581,-1.0947,1.6343,-8.9722,11.1084,-2.0752
2025-05-29 06:14:05.731,852539,walk,-0.1313,0.5054,1.0576,-10.5591,5.4321,-7.0801
2025-05-29 06:14:05.779,852589,walk,0.001,-0.0728,1.0977,-9.6436,-5.0659,-4.5776
2025-05-29 06:14:05.829,852639,walk,-0.5405,0.9082,2.7412,-6.6528,20.874,-1.0376
2025-05-29 06:14:05.879,852689,walk,-0.0122,0.0342,1.3174,-4.5166,2.9907,6.0425
2025-05-29 06:14:05.932,852739,walk,0.1089,-0.2295,0.9102,-3.1128,-7.019,5.9814
2025-05-29 06:14:05.979,852789,walk,0.1138,-0.2139,1.7202,-13.6719,-2.1973,-3.479
2025-05-29 06:14:06.030,852839,walk,0.0176,0.0562,1.6724,-11.2305,13.9771,-5.7983
2025-05-29 06:14:06.079,852889,walk,0.0771,-0.126,1.3008,-6.958,-4.1504,-2.5024
2025-05-29 06:14:06.131,852939,walk,-0.146,-0.4565,2.3682,-9.4604,4.6997,2.6245
2025-05-29 06:14:06.179,852989,walk,-0.0464,-0.0107,1.4951,-4.4556,4.4556,2.9297
2025-05-29 06:14:06.229,853039,walk,0.1104,-0.1367,0.6084,-1.8921,-10.0098,2.6245
2025-05-29 06:14:06.279,853089,walk,0.0444,0.6978,1.2554,-0.1221,11.6577,-3.6621
2025-05-29 06:14:06.329,853139,walk,0.0513,0.1685,1.4043,-7.8125,5.249,-7.5684
2025-05-29 06:14:07.700,853189,walk,0.1626,-0.0806,0.9312,-6.958,-5.8594,-3.9062
2025-05-29 06:14:07.701,853239,walk,-0.1396,-0.3276,2.3472,-11.8408,0.8545,1.6479
2025-05-29 06:14:07.703,853289,walk,-0.0205,-0.1162,1.4565,-1.77,4.3945,4.8828
2025-05-29 06:14:07.704,853339,walk,0.1274,-0.104,0.5356,1.0986,-8.7891,1.8921
2025-05-29 06:14:07.705,853389,walk,0.0513,-0.4453,0.8779,-2.5024,2.9907,1.77
2025-05-29 06:14:07.706,853439,walk,-0.083,0.1919,1.5356,-7.3853,6.897,-7.4463
2025-05-29 06:14:07.706,853489,walk,0.0547,0.0386,1.1963,-4.2114,-4.5776,-3.6011
2025-05-29 06:14:07.706,853539,walk,-0.1514,0.3809,2.4062,-2.3193,-0.1221,-0.9766
2025-05-29 06:14:07.707,853589,walk,-0.0435,-0.251,1.6821,-2.6855,10.6201,5.0659
2025-05-29 06:14:07.707,853639,walk,0.0776,0.0151,0.9805,-1.0986,-4.6387,2.0752
2025-05-29 06:14:07.707,853689,walk,-0.1035,-0.416,1.3335,-7.1411,2.8687,-1.9531
2025-05-29 06:14:07.708,853739,walk,0.0161,-0.1938,1.3838,-7.7515,12.2681,-3.8452
2025-05-29 06:14:07.708,853789,walk,0.0483,-0.0244,1.02,-3.6621,-4.0894,-3.9062
2025-05-29 06:14:07.709,853839,walk,-0.1519,-0.3994,2.0361,-9.3994,4.9438,-0.3662
2025-05-29 06:14:07.709,853889,walk,-0.0479,-0.083,1.3569,-0.1831,4.6387,6.6528
2025-05-29 06:14:07.710,853939,walk,0.0962,-0.1733,0.7783,-5.3101,-6.7139,3.9673
2025-05-29 06:14:07.710,853989,walk,-0.0156,-0.1284,1.8906,-5.9204,3.7842,0.1831
2025-05-29 06:14:07.711,854039,walk,-0.064,0.1973,1.3809,-7.5073,7.4463,-5.9204
2025-05-29 06:14:07.754,854089,walk,0.1333,-0.1396,0.9453,-5.188,-3.1128,-6.2866
2025-05-29 06:14:07.755,854531,walk,-0.0117,0.1631,0.9199,-0.8545,-2.8687,-8.5449
2025-05-29 06:14:07.770,854580,walk,-0.1108,-0.6167,0.2168,-3.0518,0.8545,-1.5869
2025-05-29 06:14:07.820,854630,walk,0.0596,-0.292,0.6353,-4.6387,-2.1973,-20.813
2025-05-29 06:14:07.877,854680,walk,-0.002,0.0093,1.0278,-7.5073,-2.3804,-18.6157
2025-05-29 06:14:07.921,854730,walk,-0.0371,0.4678,0.7666,-2.1973,8.3008,-17.5781
2025-05-29 06:14:07.972,854780,walk,-0.0171,0.1411,0.7812,-0.1831,-4.6997,-9.5825
2025-05-29 06:14:08.020,854830,walk,0.0356,0.0576,0.8491,-1.8311,-3.9062,-8.1177
2025-05-29 06:14:08.070,854880,walk,-0.0083,-0.5298,0.6123,-2.2583,7.1411,-2.1362
2025-05-29 06:14:08.120,854930,walk,0.0454,-0.1514,0.8179,-4.2114,-2.1362,-19.8364
2025-05-29 06:14:08.170,854980,walk,0.0063,-0.041,1.0435,-12.3901,0.1831,-19.5923
2025-05-29 06:14:08.220,855030,walk,-0.1099,0.6172,0.8335,-1.6479,8.606,-18.9209
2025-05-29 06:14:08.270,855080,walk,-0.0552,-0.1025,0.7446,-1.2817,-0.9155,-8.0566
2025-05-29 06:14:08.321,855130,walk,0.02,0.123,0.7705,2.1362,-2.7466,-6.1035
2025-05-29 06:14:08.371,855180,walk,0.1709,-0.6509,0.2876,-5.6763,0.8545,-4.3945
2025-05-29 06:14:08.421,855230,walk,0.0376,-0.2773,0.6689,-3.6011,-3.1738,-19.165
2025-05-29 06:14:08.470,855280,walk,-0.0415,-0.0708,0.9038,-9.8877,-4.8218,-16.9678
2025-05-29 06:14:08.521,855330,walk,0.1523,0.8159,0.6621,4.8828,6.1646,-15.9912
2025-05-29 06:14:08.570,855380,walk,0.0146,-0.3135,0.8613,-3.3569,-3.54,-7.6294
2025-05-29 06:14:08.621,855430,walk,0.0117,0.2588,0.7236,1.8311,-1.77,-7.9346
2025-05-29 06:14:08.670,855480,walk,0.4517,-0.917,0.1191,-6.4087,0.7935,-3.418
2025-05-29 06:14:08.724,855530,walk,0.0029,0.0142,0.7114,-2.6855,-3.0518,-23.0103
2025-05-29 06:14:08.770,855580,walk,-0.0488,-0.0576,1.0757,-9.1553,-1.77,-20.0806
2025-05-29 06:14:08.821,855630,walk,0.1602,0.4097,1.0659,-1.9531,12.146,-14.7705
2025-05-29 06:14:08.870,855680,walk,0.0166,-0.1396,0.9063,-1.0376,-1.8311,-7.9956
2025-05-29 06:14:08.922,855730,walk,0.0391,0.1016,0.6714,0.4272,-2.8687,-6.6528
2025-05-29 06:14:08.971,855780,walk,0.2515,-0.415,0.0342,-1.3428,1.2207,-5.188
2025-05-29 06:14:09.021,855830,walk,0.1558,0.0601,0.1724,-2.0752,-5.3101,-21.9116
2025-05-29 06:14:09.071,855880,walk,0.0137,0.189,1.103,-7.5073,-1.2817,-18.9209
2025-05-29 06:14:09.120,855930,walk,0.1685,0.5874,1.0078,-1.9531,16.5405,-16.0522
2025-05-29 06:14:09.170,855980,walk,0.1006,-0.4243,0.9136,-2.6245,-2.5635,-5.7983
2025-05-29 06:14:09.220,856030,walk,0.0415,0.0156,0.7803,2.2583,-3.418,-5.127
2025-05-29 06:14:09.270,856080,walk,0.395,-0.8022,-0.1572,-5.249,-2.5635,-3.7842
2025-05-29 06:14:09.320,856130,walk,0.0776,-0.0918,0.4204,-2.1973,-5.0659,-20.2637
2025-05-29 06:14:09.370,856180,walk,0.0024,0.0635,1.0127,-7.0801,-3.1128,-19.104
2025-05-29 06:14:09.420,856230,walk,0.1519,0.6997,0.9409,-5.127,15.2588,-17.6392
2025-05-29 06:14:09.471,856280,walk,0.0581,-0.2271,0.9551,-1.709,-3.0518,-7.6904
2025-05-29 06:14:09.520,856330,walk,0.0181,0.1416,0.7383,-0.6104,-4.6997,-6.6528
2025-05-29 06:14:09.570,856380,walk,0.3672,-0.729,0.0449,-13.0005,-7.8125,-5.8594
2025-05-29 06:14:09.621,856430,walk,0.0283,-0.1831,0.7568,-3.6621,-2.4414,-19.7754
2025-05-29 06:14:09.671,856480,walk,0.0464,0.0322,0.9326,-10.0708,-3.2959,-18.4326
2025-05-29 06:14:09.722,856530,walk,0.188,0.2246,0.9512,-7.7515,22.8271,-15.0757
2025-05-29 06:14:09.770,856580,walk,0.022,-0.1465,1.1919,1.5869,-0.9155,-6.4697
2025-05-29 06:14:09.823,856630,walk,0.0327,0.1162,0.8472,-2.9297,-6.4697,-7.9346
2025-05-29 06:14:09.870,856680,walk,0.3145,-0.6289,-0.2568,-4.5166,-4.6387,-5.9814
2025-05-29 06:14:09.920,856730,walk,-0.0796,-0.2207,0.3652,-5.7983,-7.3242,-18.1885
2025-05-29 06:14:09.970,856780,walk,0.0332,0.0801,0.8003,-12.4512,-3.3569,-18.6768
2025-05-29 06:14:10.020,856830,walk,0.1885,0.521,0.5605,-2.0142,13.2446,-17.1509
2025-05-29 06:14:10.070,856880,walk,-0.0078,-0.2725,1.0098,-2.8076,-1.3428,-7.1411
2025-05-29 06:14:10.121,856930,walk,0.0176,0.0596,0.7886,-1.0376,-4.7607,-6.2866
2025-05-29 06:14:10.171,856980,walk,0.3442,-0.5005,0.1968,-13.0005,-3.6621,-8.3008
2025-05-29 06:14:10.220,857030,walk,0.0381,0.2363,0.6084,-4.0894,-1.77,-21.1182
2025-05-29 06:14:10.270,857080,walk,-0.0366,0.0322,1.1924,-7.3853,-1.2207,-18.6768
2025-05-29 06:14:10.320,857130,walk,0.0796,0.5254,0.5347,-3.9062,10.376,-14.5264
2025-05-29 06:14:10.370,857180,walk,0.0166,-0.5039,1.0454,-4.0894,-4.3335,1.77
2025-05-29 06:14:10.423,857230,walk,0.0425,0.145,0.6807,-4.7607,-10.498,0.8545
2025-05-29 06:14:10.472,857281,walk,0.2407,-0.3872,-0.021,-6.1035,0.1831,-0.4272
2025-05-29 06:14:10.520,857330,walk,0.145,-0.1484,0.2881,-3.1738,-8.8501,-8.4839
2025-05-29 06:14:10.570,857380,walk,0.0396,-0.0684,0.6504,-7.9956,-8.9111,-4.1504
2025-05-29 06:14:10.621,857430,walk,-0.0068,0.147,0.186,-9.0332,20.5078,-5.249
2025-05-29 06:14:10.671,857480,walk,-0.02,0.0942,1.0552,-1.8921,-0.5493,4.2114
2025-05-29 06:14:10.721,857530,walk,0.084,0.002,0.8579,-4.2725,-7.5684,5.188
2025-05-29 06:14:10.771,857580,walk,-0.0742,-0.2251,0.0332,-19.8975,-6.4087,-2.7466
2025-05-29 06:14:10.820,857630,walk,0.0112,-0.207,0.873,-5.3101,-3.7231,-2.8687
2025-05-29 06:14:10.875,857680,walk,0.0811,0.0552,0.7163,-5.3711,-8.3008,-1.77
2025-05-29 06:14:10.920,857730,walk,0.1182,-0.187,0.4556,-12.6343,27.0996,-2.0752
2025-05-29 06:14:10.971,857780,walk,0.0059,-0.1831,1.1348,-2.9907,-1.6479,7.1411
2025-05-29 06:14:11.020,857830,walk,0.0151,0.0054,0.874,-5.9204,-11.4136,6.3477
2025-05-29 06:14:11.070,857880,walk,-0.228,0.085,0.4399,-13.5498,-6.6528,-1.2207
2025-05-29 06:14:11.120,857930,walk,-0.0947,0.2051,0.8359,-8.0566,4.3335,-5.9204
2025-05-29 06:14:11.170,857980,walk,-0.0225,0.0732,0.584,-4.4556,-6.897,-4.3945
2025-05-29 06:14:11.220,858030,walk,-0.0288,0.8218,1.3169,-9.0942,31.9214,-11.4136
2025-05-29 06:14:11.271,858080,walk,-0.0903,0.354,1.0117,4.7607,7.3853,-1.4648
2025-05-29 06:14:11.320,858130,walk,0.0078,-0.1099,0.6338,-8.3618,-8.7891,2.1973
2025-05-29 06:14:11.371,858180,walk,0.21,0.1948,0.8853,-9.0942,13.916,-4.1504
2025-05-29 06:14:11.421,858230,walk,-0.0547,-0.1646,0.6992,-11.4746,6.0425,-11.2305
2025-05-29 06:14:11.471,858280,walk,-0.0122,0.0259,0.7534,-10.5591,-2.1973,-5.9814
2025-05-29 06:14:11.520,858330,walk,-0.0435,0.0894,1.439,-0.7935,18.5547,-1.3428
2025-05-29 06:14:11.570,858380,walk,0.0068,-0.0527,0.96,-3.6011,4.6997,0.2441
2025-05-29 06:14:11.621,858430,walk,0.0283,-0.0327,0.7324,-4.0894,-6.958,2.1973
2025-05-29 06:14:11.671,858480,walk,0.3022,-0.5811,0.8394,-7.2021,7.2021,3.1128
2025-05-29 06:14:11.721,858530,walk,0.0928,-0.4321,0.6421,-10.9253,1.8921,-2.5635
2025-05-29 06:14:11.770,858580,walk,0.0269,-0.1729,0.6104,-6.8359,-5.9204,-6.6528
2025-05-29 06:14:11.821,858630,walk,-0.0635,0.4556,1.3032,6.7749,10.0098,-5.188
2025-05-29 06:14:11.872,858680,walk,-0.0181,-0.0073,0.7788,-4.1504,1.8921,4.1504
2025-05-29 06:14:11.924,858730,walk,-0.0166,-0.2202,0.7974,-5.4932,-5.0659,1.5259
2025-05-29 06:14:11.974,858780,walk,0.2979,-0.04,0.7915,-1.0986,11.2915,-1.9531
2025-05-29 06:14:12.020,858830,walk,0.0366,-0.2778,0.8877,-12.3901,2.1973,-5.3711
2025-05-29 06:14:12.070,858880,walk,0.0205,0.0356,0.8188,-6.2866,-3.7842,-4.6387
2025-05-29 06:14:12.125,858930,walk,0.0825,-0.3535,0.8438,5.7373,4.0894,-0.7324
2025-05-29 06:14:12.171,858980,walk,-0.0117,0.2734,0.6143,-2.6245,3.2349,-2.1362
2025-05-29 06:14:12.223,859030,walk,-0.0054,-0.1401,0.9331,-4.6997,-3.479,-0.4883
2025-05-29 06:14:12.270,859080,walk,0.1011,0.0937,1.1279,-1.5869,17.7612,1.1597
2025-05-29 06:14:12.321,859130,walk,-0.0098,0.0854,0.7876,-7.5684,0.3052,-9.3994
2025-05-29 06:14:12.370,859180,walk,0.0479,0.0322,0.9731,-4.9438,-3.479,-7.1411
2025-05-29 06:14:12.420,859230,walk,0.0366,-0.3862,1.0317,-8.4839,16.1133,-0.7324
2025-05-29 06:14:12.471,859280,walk,0.0332,0.2036,0.6953,-1.3428,-1.4648,1.5259
2025-05-29 06:14:12.521,859330,walk,0.0259,-0.0107,0.6655,-0.6104,-4.5166,2.1362
2025-05-29 06:14:12.570,859380,walk,0.1128,0.0674,0.9395,-0.6104,13.0615,0.7324
2025-05-29 06:14:12.621,859430,walk,0.002,-0.0586,0.7314,-7.9956,1.6479,-6.1035
2025-05-29 06:14:12.670,859480,walk,0.0195,-0.1035,0.8584,-10.6812,-4.1504,-4.9438
2025-05-29 06:14:12.720,859530,walk,-0.0093,-0.2729,1.2593,-11.9629,23.6206,-3.6011
2025-05-29 06:14:12.770,859580,walk,-0.0225,0.0459,1.1968,-4.1504,2.1973,3.8452
2025-05-29 06:14:12.821,859630,walk,0.0459,-0.2339,0.9312,-2.0752,-8.5449,3.9673
2025-05-29 06:14:12.870,859680,walk,-0.0464,0.0566,0.8042,-0.7324,16.4795,-0.061
2025-05-29 06:14:12.922,859730,walk,-0.0986,-0.2095,0.8853,-11.9629,1.709,-8.3008
2025-05-29 06:14:12.971,859780,walk,0.0425,-0.0327,0.7749,-5.0049,-5.0049,-5.6152
2025-05-29 06:14:13.025,859830,walk,0.0088,-0.6064,0.4565,-10.437,14.0381,-1.9531
2025-05-29 06:14:13.071,859880,walk,-0.1006,0.1611,0.6855,-1.2207,1.0376,-2.0752
2025-05-29 06:14:13.120,859930,walk,-0.0127,0.0732,0.9292,-0.7935,-4.6997,0.3052
2025-05-29 06:14:13.170,859980,walk,0.0166,0.1235,0.874,0.5493,16.2354,2.9907
2025-05-29 06:14:13.220,860030,walk,0.0005,-0.2588,0.7476,-11.9629,0.1831,-7.2632
2025-05-29 06:14:13.270,860080,walk,0.0249,-0.0283,0.835,-6.8359,-4.9438,-5.9204
2025-05-29 06:14:13.320,860130,walk,-0.0986,-0.0464,0.9561,-6.1035,18.6157,-3.418
2025-05-29 06:14:13.371,860180,walk,-0.0708,-0.2373,0.8755,1.0986,1.4648,1.6479
2025-05-29 06:14:13.420,860230,walk,-0.002,-0.0542,0.8638,-3.0518,-6.7139,0.7935
2025-05-29 06:14:13.470,860280,walk,0.1016,-0.1558,0.5996,-4.5776,12.4512,2.5024
2025-05-29 06:14:13.520,860330,walk,0.019,-0.3525,0.4814,-7.6904,-1.4038,-8.1177
2025-05-29 06:14:13.570,860380,walk,0.042,-0.064,0.6572,-9.3384,-6.958,-7.6904
2025-05-29 06:14:13.620,860430,walk,-0.1055,0.4873,0.8774,-0.4883,13.916,-7.2632
2025-05-29 06:14:13.670,860480,walk,0.0166,0.0991,0.7314,-3.0518,1.2817,2.9297
2025-05-29 06:14:13.720,860530,walk,0.0093,-0.165,0.9136,-3.7842,-6.0425,2.6245
2025-05-29 06:14:13.770,860580,walk,-0.0396,-0.0903,0.2363,-2.2583,7.6904,1.0986
2025-05-29 06:14:13.820,860630,walk,0.1099,-0.4189,0.4126,-8.1787,-1.4648,-7.7515
2025-05-29 06:14:13.871,860680,walk,0.0298,-0.0688,0.7847,-9.8267,-3.0518,-5.6152
2025-05-29 06:14:13.920,860730,walk,-0.042,-0.1909,0.6987,-9.4604,15.3809,-1.9531
2025-05-29 06:14:13.971,860780,walk,-0.0923,-0.2808,0.9219,-3.9062,2.3193,-0.9155
2025-05-29 06:14:14.151,860830,walk,0.0303,-0.0796,0.8682,-3.7231,-4.5776,-0.1221
2025-05-29 06:14:14.361,860880,walk,-0.0391,0.0571,0.3384,-0.3052,7.3853,3.7842
2025-05-29 06:14:14.362,860930,walk,0.0693,-0.4165,0.376,-10.8032,-3.2959,-6.0425
2025-05-29 06:14:14.370,860980,walk,0.0625,-0.0303,0.7393,-7.2632,-4.3335,-6.897
2025-05-29 06:14:14.371,861030,walk,-0.1187,-0.0605,0.7974,-2.5024,13.0615,-3.1738
2025-05-29 06:14:14.372,861080,walk,-0.1611,-0.0371,0.7812,-2.7466,3.3569,1.5869
2025-05-29 06:14:14.374,861130,walk,0.0127,0.0283,0.9312,-2.7466,-0.4883,-1.1597
2025-05-29 06:14:14.376,861180,walk,0.1548,-0.9185,0.4502,-13.4888,-1.0376,1.2207
2025-05-29 06:14:15.690,861230,walk,0.0107,0.3184,0.647,-3.1128,-0.9155,-10.9253
2025-05-29 06:14:15.691,861280,walk,0.0137,0.0928,0.6865,-9.0332,-6.7749,-6.6528
2025-05-29 06:14:15.692,861330,walk,-0.0474,0.397,0.8589,-2.0752,16.0522,-6.8359
2025-05-29 06:14:15.694,861380,walk,0.0278,-0.3584,1.0977,-2.5024,2.6245,0.4272
2025-05-29 06:14:15.695,861430,walk,-0.0005,0.0737,1.0215,-3.479,-4.1504,-1.77
2025-05-29 06:14:15.696,861480,walk,0.1118,-0.6655,0.0815,-8.7891,1.2817,2.1973
2025-05-29 06:14:15.697,861530,walk,-0.0122,0.3525,0.563,-7.5073,-1.1597,-9.0332
2025-05-29 06:14:15.698,861580,walk,0.0059,-0.1846,0.8306,-13.3667,-0.9766,-4.5776
2025-05-29 06:14:15.699,861630,walk,-0.0322,0.0366,0.1284,-5.6763,10.9863,-5.9814
2025-05-29 06:14:15.701,861680,walk,-0.0249,-0.2554,0.5195,-2.5635,-4.6387,0.6714
2025-05-29 06:14:15.702,861730,walk,-0.0259,0.0664,1.0142,-3.7231,-6.958,-0.3662
2025-05-29 06:14:15.703,861780,walk,-0.1055,-0.6885,0.6313,-1.0986,15.9912,5.5542
2025-05-29 06:14:15.705,861830,walk,-0.083,-0.2329,1.1299,-10.376,1.8311,-9.1553
2025-05-29 06:14:15.706,861880,walk,-0.0083,-0.0503,1.0508,-7.2632,-5.4321,-8.3618
2025-05-29 06:14:15.708,861930,walk,-0.001,0.7925,0.147,6.2866,5.249,-9.6436
2025-05-29 06:14:15.709,861980,walk,-0.0479,-0.3354,0.4229,-0.6104,-2.6855,-0.6104
2025-05-29 06:14:15.710,862030,walk,-0.0195,0.0239,0.6021,-3.54,-5.0659,-2.6855
2025-05-29 06:14:15.710,862080,walk,-0.019,-0.5654,0.5317,-1.8921,12.4512,3.1738
2025-05-29 06:14:15.711,862130,walk,-0.0459,-0.3437,0.7134,-7.6904,0.0,-10.437
2025-05-29 06:14:15.715,862523,walk,0.1704,-0.3682,0.1411,-2.4414,5.249,-5.8594
2025-05-29 06:14:15.762,862572,walk,0.0161,0.2056,0.9839,2.9907,-0.4272,-1.3428
2025-05-29 06:14:15.812,862622,walk,0.0273,0.0088,0.978,-5.0659,-5.4932,-0.6714
2025-05-29 06:14:15.865,862672,walk,0.0112,0.5947,0.3647,-16.9067,-10.376,-8.667
2025-05-29 06:14:15.912,862722,walk,-0.0327,0.4263,0.6655,-3.418,-8.3618,-15.0146
2025-05-29 06:14:15.967,862772,walk,-0.0181,-0.0444,1.104,-12.3291,-0.7324,-10.5591
2025-05-29 06:14:16.012,862822,walk,0.0308,-0.0688,0.2944,-3.418,5.9814,-7.5684
2025-05-29 06:14:16.063,862872,walk,-0.0098,0.27,1.0469,2.9907,1.5259,-3.6621
2025-05-29 06:14:16.112,862922,walk,0.0005,0.0493,1.3105,-4.0894,-1.77,-2.5635
2025-05-29 06:14:16.162,862972,walk,0.0391,0.5181,0.6265,-16.7847,-7.2021,-6.958
2025-05-29 06:14:16.213,863022,walk,-0.1143,-0.2119,0.9746,-5.4932,-3.1128,-13.2446
2025-05-29 06:14:16.263,863072,walk,0.0288,0.1104,0.7891,-10.437,0.4883,-12.5732
2025-05-29 06:14:16.313,863122,walk,0.0278,0.3437,0.0122,6.1035,1.2207,-10.6201
2025-05-29 06:14:16.362,863172,walk,-0.1079,0.3003,1.1216,3.2959,-1.0986,-5.7983
2025-05-29 06:14:16.412,863222,walk,0.0518,0.144,1.1558,-1.1597,-5.127,-4.7607
2025-05-29 06:14:16.463,863272,walk,0.1274,-0.0957,0.2715,-8.606,-1.5869,-1.9531
2025-05-29 06:14:16.513,863322,walk,-0.0552,0.251,1.1182,-10.5591,0.7324,-17.7612
2025-05-29 06:14:16.562,863372,walk,-0.0015,0.1309,0.792,-6.7749,-4.2725,-14.5264
2025-05-29 06:14:16.613,863422,walk,0.0327,0.335,-0.2153,7.0801,-4.5166,-13.1226
2025-05-29 06:14:16.663,863472,walk,0.0303,-0.0293,0.6875,1.0376,-7.019,-5.249
2025-05-29 06:14:16.713,863522,walk,-0.0254,0.2383,1.1519,-2.1973,-7.3242,-6.5918
2025-05-29 06:14:16.764,863572,walk,0.1572,0.2559,0.3252,-2.2583,4.7607,-3.6011
2025-05-29 06:14:16.813,863622,walk,-0.0898,0.2808,1.2949,-11.6577,2.7466,-18.9209
2025-05-29 06:14:16.863,863672,walk,-0.0249,0.168,0.938,-2.6245,-5.6152,-15.1367
2025-05-29 06:14:16.917,863722,walk,0.1963,-0.5869,0.0195,8.1787,-6.0425,-6.1646
2025-05-29 06:14:16.963,863772,walk,-0.1685,0.3252,1.4233,1.6479,-2.7466,-6.2866
2025-05-29 06:14:17.012,863822,walk,0.0381,-0.1685,0.9546,-2.0142,-3.3569,-3.54
2025-05-29 06:14:17.064,863872,walk,0.0542,0.1729,0.3364,-6.3477,-3.479,-4.5776
2025-05-29 06:14:17.113,863922,walk,-0.1895,-0.3589,1.2563,-9.3384,-2.3193,-14.6484
2025-05-29 06:14:18.765,863972,walk,0.0679,0.1045,0.7656,-4.2114,-4.2114,-16.5405
2025-05-29 06:14:18.766,864022,walk,0.0205,-0.1074,0.1133,3.9673,-6.1646,-9.5825
2025-05-29 06:14:18.767,864072,walk,-0.1899,0.5322,1.3945,4.8218,2.8687,-6.8359
2025-05-29 06:14:18.768,864122,walk,0.0312,0.1001,0.8784,-0.2441,-0.3662,-5.0049
2025-05-29 06:14:18.769,864172,walk,0.0029,0.3145,0.084,-11.1084,-10.1929,-8.7891
2025-05-29 06:14:18.770,864222,walk,-0.0249,-0.1523,1.0278,-2.6245,-8.9722,-14.2212
2025-05-29 06:14:18.771,864272,walk,-0.0498,-0.0542,1.0215,-10.6201,-3.6011,-17.2119
2025-05-29 06:14:18.771,864322,walk,0.2886,-0.3833,-0.0732,-4.2114,0.3662,-12.6953
2025-05-29 06:14:18.771,864372,walk,-0.0869,0.2446,1.5659,3.1128,7.4463,-9.8267
2025-05-29 06:14:18.867,864422,walk,0.0161,-0.084,1.3096,-1.4038,-0.3052,-3.418
2025-05-29 06:14:18.868,864472,walk,-0.1108,0.375,0.9492,-18.7378,-13.3057,-9.2163
2025-05-29 06:14:18.869,864522,walk,-0.0918,0.1177,1.1978,-3.3569,-4.5776,-18.1274
2025-05-29 06:14:18.871,864572,walk,-0.0039,-0.0693,1.0088,-15.2588,-2.8687,-14.5874
2025-05-29 06:14:18.872,864622,walk,0.2852,-0.2202,-0.0874,-15.4419,10.437,-17.0898
2025-05-29 06:14:18.873,864672,walk,-0.0532,0.1465,1.499,4.2725,6.5918,-8.7891
2025-05-29 06:14:18.874,864722,walk,-0.0361,0.0464,1.4795,-5.188,-0.6714,-5.0049
2025-05-29 06:14:18.875,864772,walk,-0.0586,0.1982,1.0044,-20.1416,-11.9019,-7.8735
2025-05-29 06:14:18.876,864822,walk,0.0405,-0.5728,1.0044,-5.127,-5.8594,-17.5781
2025-05-29 06:14:18.877,864872,walk,-0.0405,-0.1045,0.9063,-11.5356,-2.9297,-19.5313
2025-05-29 06:14:18.882,865692,walk,0.0581,0.1196,1.5396,-1.4648,6.8359,-14.8315
2025-05-29 06:14:18.932,865741,walk,0.0854,0.2329,1.3589,-5.0049,1.2207,-29.6021
2025-05-29 06:14:18.981,865791,walk,0.0889,-0.2402,1.1118,-0.9155,-9.6436,-23.9868
2025-05-29 06:14:19.031,865841,walk,-0.1006,0.6997,1.228,-4.5166,-0.9766,-17.5171
2025-05-29 06:14:19.082,865891,walk,-0.0967,-0.0527,1.4077,-2.8687,4.8218,-12.4512
2025-05-29 06:14:19.132,865941,walk,-0.0039,-0.0195,1.4307,0.8545,-5.249,-9.3384
2025-05-29 06:14:19.182,865991,walk,0.1221,-0.0601,1.5024,-3.479,-0.9766,-16.1743
2025-05-29 06:14:19.231,866041,walk,0.0474,0.1333,1.5405,-1.6479,4.5776,-25.1465
2025-05-29 06:14:19.282,866091,walk,-0.0366,0.1001,1.1133,-5.3711,-7.1411,-24.9634
2025-05-29 06:14:19.331,866141,walk,-0.0298,-0.5186,0.9927,-9.7656,7.8125,-12.4512
2025-05-29 06:14:19.382,866191,walk,-0.0244,-0.0854,1.1069,-0.6104,2.0752,-14.2822
2025-05-29 06:14:19.432,866241,walk,0.083,0.0098,1.3267,-5.4932,-4.5166,-11.5356
2025-05-29 06:14:19.482,866292,walk,0.1069,0.2075,1.7437,6.5918,2.3804,-17.1509
2025-05-29 06:14:19.531,866341,walk,0.0479,-0.2529,1.5518,-2.5635,-0.6714,-24.292
2025-05-29 06:14:19.582,866391,walk,-0.0044,0.1812,1.165,-5.3711,-8.0566,-23.4985
2025-05-29 06:14:19.632,866441,walk,-0.0693,-0.2803,1.1436,-7.6904,13.7329,-15.3198
2025-05-29 06:14:19.685,866491,walk,0.0376,0.061,0.7656,-0.7324,0.2441,-15.3198
2025-05-29 06:14:19.731,866541,walk,0.0454,-0.001,1.2212,-2.1362,-4.6387,-11.8408
2025-05-29 06:14:19.787,866591,walk,0.0586,0.0391,1.7783,0.1831,2.9907,-18.4326
2025-05-29 06:14:19.831,866641,walk,-0.0073,0.0859,1.792,-5.8594,5.3101,-25.3906
2025-05-29 06:14:19.882,866691,walk,0.1377,-0.1665,1.1191,-8.3618,-8.3008,-25.8179
2025-05-29 06:14:19.932,866741,walk,-0.0034,-0.3735,1.5112,-7.3242,10.2539,-14.6484
2025-05-29 06:14:19.982,866791,walk,0.0376,-0.4131,0.8994,-3.6011,0.8545,-9.0332
2025-05-29 06:14:20.031,866841,walk,0.1201,-0.0981,1.0063,-2.0142,-8.3618,-12.4512
2025-05-29 06:14:20.083,866891,walk,0.0391,0.127,1.77,1.4038,8.9722,-17.0898
2025-05-29 06:14:20.132,866941,walk,0.0288,0.1074,1.6641,-6.6528,1.8311,-27.9541
2025-05-29 06:14:20.182,866991,walk,0.1689,-0.1826,0.8672,-0.9766,-7.5073,-24.5972
2025-05-29 06:14:20.232,867041,walk,-0.0132,-0.4351,1.5742,-5.7373,10.8643,-15.2588
2025-05-29 06:14:20.281,867091,walk,0.0005,-0.2275,1.2485,-5.0049,3.7231,-12.207
2025-05-29 06:14:20.331,867141,walk,0.0039,-0.0342,1.3564,0.5493,-4.1504,-11.2305
2025-05-29 06:14:20.382,867191,walk,0.0674,-0.0918,1.7568,-0.5493,2.7466,-19.104
2025-05-29 06:14:20.434,867241,walk,-0.0386,0.0015,1.811,-3.9673,3.1738,-27.8931
2025-05-29 06:14:20.481,867291,walk,0.0928,-0.043,1.252,-5.6763,-9.0332,-26.5503
2025-05-29 06:14:20.532,867341,walk,-0.0552,-0.3848,1.0566,-18.6157,8.606,-21.2402
2025-05-29 06:14:20.582,867391,walk,-0.021,-0.0688,0.9199,-0.061,2.8076,-15.8691
2025-05-29 06:14:20.632,867441,walk,0.0542,-0.0703,1.2783,-1.0376,-6.4697,-10.376
2025-05-29 06:14:20.681,867491,walk,-0.0601,-0.4648,1.9741,-2.0752,4.5776,-16.6626
2025-05-29 06:14:20.732,867541,walk,-0.0591,-0.2554,1.7139,-9.3994,6.7139,-27.8931
2025-05-29 06:14:20.781,867591,walk,0.0513,0.0391,1.0742,-5.3711,-10.5591,-27.0386
2025-05-29 06:14:20.831,867641,walk,0.0483,-0.5464,0.8076,-22.2168,8.0566,-21.1182
2025-05-29 06:14:20.884,867691,walk,-0.0376,-0.1582,1.0459,0.2441,0.061,-13.855
2025-05-29 06:14:20.931,867741,walk,0.0454,0.0723,1.2788,-1.77,-7.4463,-13.4277
2025-05-29 06:14:20.986,867791,walk,0.0483,-0.0352,1.8467,0.4883,11.0474,-14.4043
2025-05-29 06:14:21.032,867841,walk,0.0781,-0.2109,1.4355,-5.3101,2.5635,-30.3955
2025-05-29 06:14:21.082,867891,walk,0.1616,-0.0518,0.7847,0.2441,-8.3618,-27.5879
2025-05-29 06:14:21.132,867941,walk,0.1216,-0.4399,0.7212,-21.9727,4.0894,-19.2871
2025-05-29 06:14:21.181,867991,walk,0.0581,-0.1177,1.3311,2.2583,3.3569,-19.104
2025-05-29 06:14:21.232,868041,walk,0.0811,0.0049,1.1665,-1.2817,-2.5024,-14.5874
2025-05-29 06:14:21.281,868091,walk,-0.0229,-0.0688,1.9976,0.6714,11.7798,-14.5874
2025-05-29 06:14:21.331,868141,walk,0.0,0.0122,1.7441,-4.5166,2.6855,-31.8604
2025-05-29 06:14:21.383,868191,walk,0.1631,-0.1504,1.0547,-8.728,-9.7656,-27.8931
2025-05-29 06:14:21.431,868241,walk,-0.1562,-0.5029,1.3018,-18.5547,12.5732,-18.8599
2025-05-29 06:14:21.482,868291,walk,-0.0039,-0.3857,0.9253,-0.5493,0.1221,-13.6108
2025-05-29 06:14:21.532,868342,walk,0.0239,0.104,1.2505,-0.1221,-6.6528,-15.8081
2025-05-29 06:14:21.581,868391,walk,-0.0259,-0.0127,2.0928,0.7935,9.5215,-16.4795
2025-05-29 06:14:21.631,868441,walk,-0.0459,0.0664,1.9492,-2.9297,2.5635,-29.6631
2025-05-29 06:14:21.681,868491,walk,0.1338,0.083,1.1094,-6.6528,-10.8643,-29.4189
2025-05-29 06:14:21.734,868541,walk,-0.1445,-0.4497,1.2837,-14.4043,14.5874,-22.8271
2025-05-29 06:14:21.781,868591,walk,-0.0361,-0.0288,1.1113,-1.8921,-0.1221,-16.6626
2025-05-29 06:14:21.835,868641,walk,0.0405,0.0645,1.2734,-5.5542,-7.3242,-17.4561
2025-05-29 06:14:21.881,868691,walk,-0.0142,-0.2256,2.1426,-1.2817,9.2163,-16.0522
2025-05-29 06:14:21.933,868741,walk,-0.002,0.0791,1.9053,-5.249,6.0425,-28.7476
2025-05-29 06:14:21.982,868791,walk,0.1152,0.002,0.9995,-3.2349,-6.897,-29.541
2025-05-29 06:14:22.032,868841,walk,0.0474,-0.6831,1.1865,-13.4888,14.5874,-19.9585
2025-05-29 06:14:22.082,868891,walk,0.0781,-0.231,0.666,1.8921,0.6104,-15.686
2025-05-29 06:14:22.132,868941,walk,0.0835,-0.1387,0.9624,1.2207,-6.2256,-15.9302
2025-05-29 06:14:22.181,868991,walk,-0.103,-0.5562,1.9502,-3.7842,-0.1831,-18.3716
2025-05-29 06:14:22.232,869041,walk,-0.0654,-0.2461,1.7993,-5.188,7.1411,-30.7617
2025-05-29 06:14:22.282,869091,walk,0.1284,0.1812,1.0117,-4.5776,-7.8125,-30.9448
2025-05-29 06:14:22.331,869141,walk,-0.2383,-0.0415,1.2671,-22.9492,15.7471,-28.8696
2025-05-29 06:14:22.382,869191,walk,0.0034,-0.0415,0.9092,4.9438,2.5635,-17.5781
2025-05-29 06:14:22.431,869241,walk,0.0933,-0.0811,1.0244,-0.8545,-4.4556,-15.1367
2025-05-29 06:14:22.482,869291,walk,-0.1724,-0.8218,2.7876,4.2114,7.2021,-15.3809
2025-05-29 06:14:22.532,869341,walk,-0.0229,-0.2671,1.8291,-2.5635,5.3711,-27.9541
2025-05-29 06:14:22.585,869391,walk,0.1797,-0.2075,1.02,-9.5825,-4.0894,-28.8086
2025-05-29 06:14:22.632,869441,walk,0.1309,-0.7236,1.3486,-5.3711,17.9443,-21.5454
2025-05-29 06:14:22.681,869491,walk,-0.0591,-0.0591,1.1978,-2.7466,3.418,-17.4561
2025-05-29 06:14:22.731,869541,walk,0.042,0.0,1.1147,-3.1738,-5.9814,-14.1602
2025-05-29 06:14:22.782,869591,walk,-0.0293,0.3237,1.0776,9.2163,-10.6812,-25.1465
2025-05-29 06:14:22.832,869641,walk,-0.061,0.4561,1.2637,-2.1362,-4.5166,-33.7524
2025-05-29 06:14:22.882,869691,walk,0.0532,0.1899,0.7441,-5.3711,-13.3667,-30.5786
2025-05-29 06:14:22.931,869741,walk,0.0903,0.1108,0.2051,-6.958,5.9204,-21.9727
2025-05-29 06:14:22.982,869791,walk,0.0068,-0.0288,0.9419,0.0,-0.1831,-18.2495
2025-05-29 06:14:23.033,869841,walk,-0.0098,0.0601,1.3667,1.6479,-11.3525,-16.5405
2025-05-29 06:14:23.082,869891,walk,0.1016,0.335,1.127,-4.4556,-13.7329,-27.1606
2025-05-29 06:14:23.136,869941,walk,-0.0493,0.4922,1.5713,0.1831,3.479,-29.7241
2025-05-29 06:14:23.181,869991,walk,0.1167,-0.125,0.689,-4.1504,-10.7422,-29.541
2025-05-29 06:14:23.233,870041,walk,0.0195,0.0615,0.4185,-5.9204,10.437,-21.7896
2025-05-29 06:14:23.282,870091,walk,-0.064,-0.085,1.1538,0.6714,1.9531,-18.2495
2025-05-29 06:14:23.332,870141,walk,0.0166,-0.1367,1.4287,-6.3477,-6.4697,-16.4795
2025-05-29 06:14:23.382,870191,walk,-0.1079,0.6011,1.563,9.3384,-5.4321,-26.9775
2025-05-29 06:14:23.432,870241,walk,0.022,0.2798,1.2417,1.5869,-1.9531,-30.4565
2025-05-29 06:14:23.482,870291,walk,0.0332,-0.0444,0.8325,-3.1128,-8.4839,-25.5127
2025-05-29 06:14:23.531,870341,walk,0.0625,0.1914,0.6362,5.0659,10.9863,-21.1792
2025-05-29 06:14:23.582,870391,walk,0.0527,0.1108,1.1514,-1.709,0.3052,-17.395
2025-05-29 06:14:23.632,870441,walk,0.0547,0.0649,1.2974,-0.6104,-7.2632,-15.625
2025-05-29 06:14:23.682,870491,walk,-0.0522,0.668,1.4102,8.3618,-13.6719,-30.5786
2025-05-29 06:14:23.732,870541,walk,0.0044,0.0044,1.1729,2.6855,-4.6997,-29.9072
2025-05-29 06:14:23.782,870591,walk,0.0781,-0.1704,0.8447,-2.6245,-7.3853,-27.0996
2025-05-29 06:14:23.832,870641,walk,0.0161,0.1094,0.2842,1.4648,12.9395,-21.2402
2025-05-29 06:14:23.882,870691,walk,0.0937,-0.1084,1.0396,-1.4038,3.6621,-16.0522
2025-05-29 06:14:23.931,870741,walk,-0.0015,0.0811,1.5508,-0.8545,-6.1035,-12.8784
2025-05-29 06:14:23.986,870791,walk,0.0479,0.3291,1.4658,-0.4883,-20.0806,-29.7241
2025-05-29 06:14:24.031,870841,walk,-0.0669,0.3657,1.5239,1.2207,1.4648,-32.1655
2025-05-29 06:14:24.088,870891,walk,-0.002,0.1924,1.085,-7.2632,-9.0332,-30.2124
2025-05-29 06:14:24.132,870941,walk,0.0884,-0.1929,0.4844,-16.8457,14.7095,-21.7896
2025-05-29 06:14:24.182,870991,walk,-0.0483,0.0317,1.083,2.5024,0.7935,-20.0806
2025-05-29 06:14:24.232,871041,walk,0.0234,0.0171,1.4292,-2.5024,-8.0566,-15.9302
2025-05-29 06:14:24.282,871091,walk,0.1597,0.082,1.7759,6.897,-10.2539,-24.4141
2025-05-29 06:14:24.332,871141,walk,-0.062,0.2817,1.3223,-1.4038,-0.6104,-32.5317
2025-05-29 06:14:24.384,871191,walk,0.0562,-0.0684,0.9424,0.6104,-9.2163,-28.6865
2025-05-29 06:14:24.431,871241,walk,0.1074,0.2183,0.2324,-8.5449,10.6812,-23.8647
2025-05-29 06:14:24.481,871291,walk,0.0225,0.0234,1.0938,1.2207,0.3052,-17.7002
2025-05-29 06:14:24.532,871341,walk,0.0322,0.0508,1.4297,2.6855,-7.3853,-18.9209
2025-05-29 06:14:24.582,871391,walk,0.228,-0.1274,1.7202,4.7607,-16.3574,-23.2544
2025-05-29 06:14:24.632,871441,walk,-0.0996,0.2754,1.5234,-0.2441,-0.061,-29.9072
2025-05-29 06:14:24.681,871491,walk,0.0444,0.0898,0.9653,0.1221,-9.3384,-27.9541
2025-05-29 06:14:24.732,871541,walk,0.2261,-0.2095,-0.1392,-21.4844,17.6392,-22.3389
2025-05-29 06:14:24.782,871591,walk,0.0146,0.0713,1.2441,7.2632,3.9062,-18.8599
2025-05-29 06:14:24.831,871641,walk,0.0649,0.126,1.2827,0.7324,-8.2397,-16.6016
2025-05-29 06:14:24.882,871691,walk,0.2251,-0.1069,1.5474,10.6201,-19.4702,-24.292
2025-05-29 06:14:24.932,871741,walk,0.0708,0.0669,1.2012,0.2441,-3.54,-30.7007
2025-05-29 06:14:24.982,871791,walk,0.0083,0.1387,0.7939,-4.0894,-7.7515,-27.9541
2025-05-29 06:14:25.032,871841,walk,0.144,0.1851,0.3115,-5.7983,18.8599,-29.2969
2025-05-29 06:14:25.082,871891,walk,0.0381,-0.2109,1.0625,1.1597,-0.1831,-15.9302
2025-05-29 06:14:25.132,871941,walk,0.021,0.0649,1.2876,-4.5166,-10.7422,-14.4043
2025-05-29 06:14:25.183,871991,walk,0.1772,0.0444,1.8643,6.7749,-16.4185,-25.2686
2025-05-29 06:14:25.232,872041,walk,0.0947,0.3149,1.3276,1.0376,0.6714,-32.8979
2025-05-29 06:14:25.281,872091,walk,-0.0664,0.0991,1.2202,-8.3618,-8.0566,-30.1514
2025-05-29 06:14:25.333,872141,walk,0.165,-0.4204,0.2983,-19.7144,13.3057,-20.3857
2025-05-29 06:14:25.383,872191,walk,-0.1099,-0.0176,1.418,3.8452,2.4414,-17.8223
2025-05-29 06:14:25.432,872241,walk,0.002,0.1567,1.5737,-1.8921,-9.6436,-16.7847
2025-05-29 06:14:25.482,872291,walk,-0.0176,-0.1519,1.8853,0.1221,-11.1694,-22.583
2025-05-29 06:14:25.532,872341,walk,-0.0269,0.0854,1.5352,-0.6714,6.2866,-25.5127
2025-05-29 06:14:25.582,872391,walk,0.0332,0.1025,1.0981,-3.1738,-6.7749,-22.1558
2025-05-29 06:14:25.637,872441,walk,0.1406,-0.2446,0.042,-23.2544,12.3291,-8.5449
2025-05-29 06:14:25.682,872491,walk,-0.1138,-0.2544,1.5776,4.1504,8.9111,-2.8076
2025-05-29 06:14:25.732,872541,walk,-0.0005,0.0649,1.5786,-4.7607,-6.958,-1.0986
2025-05-29 06:14:25.782,872591,walk,0.0254,-0.2217,2.2012,-8.667,-16.2964,-2.8076
2025-05-29 06:14:25.832,872641,walk,0.1104,-0.1353,1.5825,-4.7607,8.0566,-7.7515
2025-05-29 06:14:25.881,872691,walk,-0.0918,0.2275,1.1362,-0.7935,-3.418,-6.1646
2025-05-29 06:14:25.931,872741,walk,0.335,-0.2114,-0.1479,-14.5264,18.7988,-6.958
2025-05-29 06:14:25.981,872791,walk,-0.1162,-0.1904,1.4668,0.8545,6.5918,5.8594
2025-05-29 06:14:26.032,872841,walk,0.042,0.1494,1.3057,-6.6528,-8.2397,2.9907
2025-05-29 06:14:26.082,872891,walk,-0.0186,-0.1455,2.0386,-0.2441,-12.5732,0.1221
2025-05-29 06:14:26.134,872941,walk,0.0752,-0.1279,1.2661,-6.1035,1.77,-7.6904
2025-05-29 06:14:26.182,872991,walk,0.1069,-0.1938,0.96,-3.1128,-4.5166,-1.4648
2025-05-29 06:14:26.234,873041,walk,-0.0293,0.2109,0.7354,6.4697,17.2119,-5.0049
2025-05-29 06:14:26.283,873091,walk,-0.0386,-0.3101,1.2114,-8.4229,-5.6763,7.1411
2025-05-29 06:14:26.331,873141,walk,0.0601,0.0889,1.1987,-8.1177,-9.1553,5.249
2025-05-29 06:14:26.382,873191,walk,0.0156,0.3193,2.1787,3.1738,-3.2959,-7.7515
2025-05-29 06:14:26.432,873241,walk,0.0352,0.2778,1.6377,-8.9722,2.4414,-10.7422
2025-05-29 06:14:26.482,873291,walk,0.062,0.0117,0.9927,-4.9438,-6.8359,-2.4414
2025-05-29 06:14:26.531,873341,walk,-0.1172,-0.1689,1.0537,-2.9297,15.3198,1.3428
2025-05-29 06:14:26.582,873391,walk,-0.0752,-0.064,1.3975,-6.2256,2.0142,5.249
2025-05-29 06:14:26.631,873441,walk,0.0454,0.1035,1.2334,-4.3335,-10.9863,5.6152
2025-05-29 06:14:26.682,873491,walk,0.1348,-0.9224,1.3384,-16.9067,-14.4043,0.6714
2025-05-29 06:14:26.732,873541,walk,-0.0132,-0.1245,1.4629,-7.5073,9.8877,-3.479
2025-05-29 06:14:26.782,873591,walk,0.0327,-0.0107,1.2554,-5.0659,-5.249,-4.8828
2025-05-29 06:14:26.834,873641,walk,-0.0811,-0.4429,1.207,-1.9531,20.6299,0.1221
2025-05-29 06:14:26.884,873691,walk,0.0005,-0.3687,1.2031,-7.2632,1.0986,7.5684
2025-05-29 06:14:26.935,873741,walk,0.0396,0.0215,1.1504,-3.7842,-12.9395,5.8594
2025-05-29 06:14:26.983,873791,walk,0.1123,-0.668,1.624,-12.6343,-13.2446,0.7324
2025-05-29 06:14:27.032,873841,walk,0.0327,-0.3374,1.437,-6.5918,8.606,-3.9062
2025-05-29 06:14:27.082,873891,walk,0.0742,-0.1558,1.2124,-3.54,-4.9438,-4.6997
2025-05-29 06:14:27.134,873941,walk,-0.0474,-0.6274,1.0913,-10.2539,10.498,0.8545
2025-05-29 06:14:27.182,873991,walk,-0.0947,0.0898,1.2842,0.3662,4.0283,2.1362
2025-05-29 06:14:27.232,874041,walk,0.0112,0.2334,1.3237,-4.8828,-7.8735,3.0518
2025-05-29 06:14:27.282,874091,walk,0.1245,-0.5527,1.4609,-9.0942,-12.0239,0.9155
2025-05-29 06:14:27.335,874141,walk,0.002,-0.2407,1.4375,-7.9956,8.728,-3.54
2025-05-29 06:14:27.382,874191,walk,0.0132,0.0708,1.1553,-1.77,-4.2114,-4.3335
2025-05-29 06:14:27.431,874241,walk,0.0181,-0.4214,1.1519,-7.9956,15.2588,-1.2817
2025-05-29 06:14:27.482,874291,walk,-0.1289,0.1074,1.3853,-3.7842,0.6104,4.5776
2025-05-29 06:14:27.539,874341,walk,0.0112,0.2075,1.1953,-6.958,-8.2397,4.5166
2025-05-29 06:14:27.582,874391,walk,-0.0581,-0.5117,2.0771,-10.1929,-5.3101,-3.54
2025-05-29 06:14:27.631,874441,walk,-0.0195,-0.2886,1.6958,-10.2539,12.8784,-3.6011
2025-05-29 06:14:27.682,874491,walk,-0.0039,0.0728,1.2817,-5.3101,-1.5259,-3.7231
2025-05-29 06:14:27.732,874541,walk,-0.0527,-0.6743,1.7432,-1.5259,10.5591,5.0659
2025-05-29 06:14:27.785,874591,walk,0.0449,-0.0488,1.0303,-2.9297,-1.4648,3.6011
2025-05-29 06:14:27.832,874641,walk,0.1104,-0.29,0.9585,-2.9297,-9.8267,4.6997
2025-05-29 06:14:27.882,874691,walk,0.0044,-0.2935,1.6118,-1.9531,3.418,-0.061
2025-05-29 06:14:27.931,874741,walk,-0.0464,-0.1172,1.7104,-9.0942,9.6436,-7.3242
2025-05-29 06:14:27.982,874791,walk,0.0332,0.0137,1.1992,-5.6763,-3.7842,-2.5635
2025-05-29 06:14:28.032,874841,walk,-0.0664,-0.6948,1.8901,-6.958,3.479,7.8125
2025-05-29 06:14:28.081,874891,walk,0.0015,-0.208,0.8496,0.9155,-2.4414,4.8218
2025-05-29 06:14:28.132,874941,walk,0.1118,-0.1855,0.8354,-3.0518,-6.5308,2.9907
2025-05-29 06:14:28.182,874991,walk,-0.0405,0.3545,1.7285,0.7324,3.7842,-2.2583
2025-05-29 06:14:28.231,875041,walk,-0.0073,-0.0332,1.6475,-8.667,6.8359,-5.3711
2025-05-29 06:14:28.285,875091,walk,0.0537,0.0205,1.0913,-7.7515,-4.8218,-1.5259
2025-05-29 06:14:28.332,875141,walk,-0.1504,-0.7217,1.9443,-8.606,8.9111,0.6104
2025-05-29 06:14:28.384,875191,walk,-0.0439,0.0137,1.0083,-1.0376,2.6855,3.418
2025-05-29 06:14:28.432,875241,walk,0.0137,0.1221,0.8687,-1.77,-6.897,4.6997
2025-05-29 06:14:28.482,875291,walk,0.0518,-0.2368,1.2808,-1.6479,1.5869,-0.061
2025-05-29 06:14:28.532,875341,walk,0.0396,0.0923,1.4204,-6.4697,5.9204,-7.9956
2025-05-29 06:14:28.582,875391,walk,0.0381,-0.0259,0.915,-7.6294,-2.6855,-3.7842
2025-05-29 06:14:28.632,875441,walk,-0.1147,-0.481,1.9165,-9.2773,4.8828,0.7935
2025-05-29 06:14:28.682,875491,walk,-0.0605,-0.145,1.1357,-1.8311,3.2349,4.8828
2025-05-29 06:14:28.732,875541,walk,0.0811,0.02,0.8154,-0.7935,-6.897,3.3569
2025-05-29 06:14:28.785,875591,walk,0.0283,0.1309,1.2974,1.9531,6.5308,-0.9766
2025-05-29 06:14:28.832,875641,walk,-0.0532,-0.0527,1.4414,-7.5684,6.3477,-5.0659
2025-05-29 06:14:28.882,875691,walk,0.1001,-0.0063,0.9648,-4.5776,-4.3335,-1.5869
2025-05-29 06:14:28.932,875741,walk,-0.106,-0.4858,2.0991,-10.1318,6.3477,-0.061
2025-05-29 06:14:28.982,875791,walk,-0.0791,0.0542,1.4121,-2.0142,3.1738,2.6245
2025-05-29 06:14:29.032,875841,walk,0.0283,0.0469,0.9365,-2.7466,-5.4321,2.2583
2025-05-29 06:14:29.082,875891,walk,-0.0386,0.5625,1.4653,1.2207,2.6245,-3.7231
2025-05-29 06:14:29.527,875941,walk,-0.0347,0.1445,1.0005,-6.1035,1.2817,-2.9907
2025-05-29 06:14:29.622,875991,walk,0.0371,-0.0117,0.7266,-5.6152,-4.0894,-1.2207
2025-05-29 06:14:29.624,876041,walk,0.0605,-0.6138,1.7876,-9.4604,7.3853,0.7935
2025-05-29 06:14:29.625,876091,walk,-0.061,-0.249,1.207,-5.3101,1.6479,5.188
2025-05-29 06:14:29.626,876141,walk,0.0273,-0.0957,0.9526,-2.8687,-4.8828,3.8452
2025-05-29 06:14:29.627,876191,walk,-0.0991,-0.2715,1.1572,-2.8076,-4.0894,-4.8218
2025-05-29 06:14:29.628,876241,walk,-0.0635,0.2075,0.8892,-5.127,0.9155,-6.7139
2025-05-29 06:14:29.630,876291,walk,0.0176,-0.0371,0.9033,-5.4321,-2.0142,-1.9531
2025-05-29 06:14:29.631,876341,walk,0.1504,0.6841,0.4863,-0.1221,-8.728,-2.5635
2025-05-29 06:14:29.706,876391,walk,-0.0107,-0.0615,1.2598,-6.4697,4.1504,4.2725
2025-05-29 06:14:29.889,876441,walk,0.0459,-0.061,0.9141,-2.8687,-1.709,2.4414
2025-05-29 06:14:29.891,876491,walk,-0.0103,0.1499,1.2109,0.7324,-10.0098,-10.1318
2025-05-29 06:14:29.892,876541,walk,-0.0029,0.207,0.7354,-7.5684,2.6245,-4.2114
2025-05-29 06:14:29.893,876591,walk,0.0107,0.0059,0.8223,-6.4087,0.1221,-4.1504
2025-05-29 06:14:30.184,876641,walk,0.1294,0.5615,0.5596,2.3804,-8.9111,-1.5259
2025-05-29 06:14:30.186,876691,walk,0.0396,-0.0288,1.272,-8.1787,4.5776,5.0659
2025-05-29 06:14:30.187,876741,walk,0.1006,0.0146,0.9761,-3.2349,-2.2583,2.6245
2025-05-29 06:14:30.291,876791,walk,0.3091,0.0703,1.0034,0.6104,-7.1411,-11.4136
2025-05-29 06:14:30.292,876841,walk,0.0937,0.0771,0.6279,-7.2632,2.8076,-4.4556
2025-05-29 06:14:30.293,876891,walk,0.0,-0.0024,0.8628,-4.9438,0.3662,-3.2349
2025-05-29 06:14:30.294,876941,walk,0.0513,0.5791,0.9697,1.0986,-5.127,0.7935
2025-05-29 06:14:30.296,876991,walk,0.0654,-0.123,1.0264,-5.9204,1.0376,8.3008
2025-05-29 06:14:30.538,877041,walk,0.0981,-0.1074,0.7749,-4.4556,-3.9062,4.0283
2025-05-29 06:14:30.539,877091,walk,0.0747,0.0835,0.9805,-5.0049,1.0986,-9.3994
2025-05-29 06:14:30.548,877141,walk,0.0093,0.2334,1.1929,-5.4932,3.7842,-5.127
2025-05-29 06:14:31.051,877191,walk,0.0845,-0.0361,0.9751,-6.1646,-3.9062,-2.0752
2025-05-29 06:14:31.052,877241,walk,0.1821,-0.0317,0.7036,-3.9062,-0.8545,2.7466
2025-05-29 06:14:31.053,877291,walk,-0.0229,0.0059,1.0024,-4.7607,1.5259,3.3569
2025-05-29 06:14:31.054,877341,walk,0.0073,-0.2583,1.1528,-3.3569,-5.0659,4.7607
2025-05-29 06:14:31.056,877391,walk,-0.0537,-0.2378,1.0464,-2.8687,-0.1831,-4.3945
2025-05-29 06:14:31.057,877441,walk,-0.0708,0.2368,1.1396,-4.7607,4.0283,-5.6152
2025-05-29 06:14:31.058,877491,walk,0.1333,-0.1772,1.0215,-4.0283,-3.9673,-1.6479
2025-05-29 06:14:31.059,877541,walk,0.0771,0.3193,0.9624,-0.9766,-1.0986,4.6997
2025-05-29 06:14:31.256,877591,walk,-0.0347,-0.1348,1.1631,-3.7842,2.3193,7.7515
2025-05-29 06:14:31.257,877641,walk,0.0386,-0.3228,1.0933,-3.8452,-6.4087,5.249
2025-05-29 06:14:31.258,877691,walk,0.1782,-0.2495,1.3384,-2.8687,-2.1362,-8.9111
2025-05-29 06:14:31.260,877741,walk,-0.0273,0.2212,1.3984,-5.9204,5.127,-7.8735
2025-05-29 06:14:31.261,877791,walk,0.0439,-0.0146,0.9546,-5.127,-3.7842,-0.7324
2025-05-29 06:14:31.262,877841,walk,-0.1089,0.3066,1.2109,-1.8921,4.5776,2.9297
2025-05-29 06:14:31.263,877891,walk,-0.0396,-0.0752,1.1021,-5.6152,2.3193,3.2959
2025-05-29 06:14:31.267,877941,walk,0.0864,-0.0342,1.1172,-3.9062,-5.7373,3.9062
2025-05-29 06:14:31.269,877991,walk,0.0586,-0.1221,1.5483,-1.1597,-1.6479,-7.3853
2025-05-29 06:14:31.275,878041,walk,0.0483,-0.1396,1.1338,-6.3477,4.2725,-3.1738
2025-05-29 06:14:31.281,878091,walk,0.0293,0.2749,1.0127,-5.127,-2.1973,-4.0283
2025-05-29 06:14:31.332,878141,walk,0.0728,-0.0679,0.8569,-3.7231,-0.7324,5.3101
2025-05-29 06:14:31.382,878191,walk,-0.02,0.0107,0.9668,-5.4321,0.6714,3.8452
2025-05-29 06:14:31.432,878241,walk,0.0806,0.0947,1.0674,-4.6387,-3.7231,1.5259
2025-05-29 06:14:31.482,878291,walk,0.1343,-0.1543,1.2739,-4.2725,0.9766,-8.1177
2025-05-29 06:14:31.533,878341,walk,-0.0132,0.019,1.2373,-5.9814,4.6387,-5.3711
2025-05-29 06:14:31.583,878391,walk,0.0361,0.0654,1.1216,-5.4932,-3.6621,-2.5635
2025-05-29 06:14:31.634,878441,walk,0.1079,-0.0654,0.9248,-5.5542,-3.7231,3.418
2025-05-29 06:14:31.682,878491,walk,-0.0449,-0.2261,0.9912,-5.5542,-0.7935,5.249
2025-05-29 06:14:31.732,878541,walk,0.0654,-0.0601,1.0,-3.2959,-5.127,2.9297
2025-05-29 06:14:31.782,878591,walk,0.1831,0.1553,1.1665,-1.4648,4.9438,-10.9863
2025-05-29 06:14:31.834,878641,walk,-0.0771,0.0801,1.3433,-8.4839,4.8218,-5.4321
2025-05-29 06:14:31.882,878691,walk,-0.002,0.2393,1.3516,-5.188,-2.4414,-2.1362
2025-05-29 06:14:31.932,878741,walk,0.1533,-0.4746,1.4375,-10.376,-5.4932,7.5684
2025-05-29 06:14:31.982,878791,walk,-0.0088,-0.1284,1.1167,-2.6245,-5.9204,7.7515
2025-05-29 06:14:32.033,878841,walk,0.0835,-0.0278,0.8452,-4.9438,-7.9346,3.6621
2025-05-29 06:14:32.082,878891,walk,0.105,0.1753,0.9473,-3.1738,10.1318,-7.7515
2025-05-29 06:14:32.132,878941,walk,-0.0063,0.1748,1.3457,-2.6245,2.8076,-7.2021
2025-05-29 06:14:32.182,878991,walk,-0.0107,0.0835,0.9419,-4.9438,-4.6997,-1.8921
2025-05-29 06:14:32.231,879041,walk,0.1719,-0.6289,1.4268,-11.5967,-3.9673,7.5073
2025-05-29 06:14:32.282,879092,walk,0.0059,-0.2007,1.1079,0.061,-0.1221,3.6011
2025-05-29 06:14:32.332,879141,walk,0.0283,-0.2266,0.98,-2.7466,-5.3711,5.0049
2025-05-29 06:14:32.382,879191,walk,0.1914,-0.209,1.2314,-2.8687,1.8311,-7.019
2025-05-29 06:14:32.432,879241,walk,-0.0059,-0.2222,1.4858,-6.958,4.9438,-5.0659
2025-05-29 06:14:32.490,879291,walk,0.0674,0.1211,1.0796,-6.2256,-3.8452,-2.3804
2025-05-29 06:14:32.532,879341,walk,-0.0303,0.0571,1.6328,-6.2866,-4.9438,7.8125
2025-05-29 06:14:32.586,879391,walk,-0.0337,-0.2847,1.0435,-4.0283,0.6104,5.4321
2025-05-29 06:14:32.632,879441,walk,0.0483,-0.2686,1.02,-3.2959,-5.6763,2.6245
2025-05-29 06:14:32.686,879491,walk,0.0059,0.1841,1.5581,0.4272,5.6763,-8.9111
2025-05-29 06:14:32.736,879541,walk,-0.1079,-0.0654,1.5918,-7.9346,4.0894,-2.8687
2025-05-29 06:14:32.783,879591,walk,0.0464,0.0913,1.1768,-4.5776,-5.5542,-1.709
2025-05-29 06:14:32.832,879641,walk,0.144,-0.6982,1.4131,-12.085,-0.7935,8.7891
2025-05-29 06:14:32.882,879691,walk,0.0186,-0.2578,0.9829,-0.7935,0.9766,6.1035
2025-05-29 06:14:32.932,879741,walk,0.0537,-0.1328,0.9956,-1.4038,-4.0894,3.3569
2025-05-29 06:14:32.982,879791,walk,0.061,0.2407,1.6123,0.7324,5.0659,-8.667
2025-05-29 06:14:33.032,879841,walk,0.0342,0.1865,1.4043,-3.0518,2.4414,-7.8735
2025-05-29 06:14:33.082,879891,walk,0.064,0.1055,1.0571,-3.7842,-5.3101,-2.1362
2025-05-29 06:14:33.132,879941,walk,0.2266,-0.7705,0.6211,-8.4229,-2.5635,9.3994
2025-05-29 06:14:33.182,879991,walk,-0.0469,-0.1001,0.7227,-1.6479,-0.9155,5.3101
2025-05-29 06:14:33.234,880041,walk,0.0601,-0.2031,1.1123,-1.2207,-1.4648,4.2114
2025-05-29 06:14:33.282,880091,walk,-0.0811,0.5913,1.8613,3.8452,0.2441,-11.0474
2025-05-29 06:14:33.332,880141,walk,-0.0718,0.1714,1.4043,-6.3477,3.9673,-5.188
2025-05-29 06:14:33.382,880191,walk,0.0723,-0.062,1.1553,-4.6387,-4.7607,-2.8076
2025-05-29 06:14:33.432,880241,walk,0.165,-0.3691,0.7964,-5.3101,-0.6714,5.249
2025-05-29 06:14:33.481,880291,walk,-0.0044,-0.0181,0.6709,-2.8076,-1.9531,8.1177
2025-05-29 06:14:33.532,880341,walk,0.1255,-0.2085,1.0181,-4.0894,-5.8594,6.6528
2025-05-29 06:14:33.582,880391,walk,-0.0312,0.0635,1.7983,-6.8359,-5.188,-5.9814
2025-05-29 06:14:33.632,880441,walk,0.0469,0.1099,1.5952,-10.9253,7.3242,-4.3945
2025-05-29 06:14:33.684,880491,walk,0.0845,0.0034,1.1416,-7.6904,-4.0283,-4.5166
2025-05-29 06:14:33.732,880541,walk,-0.0342,-0.561,1.7144,-11.2915,-1.4038,5.249
2025-05-29 06:14:33.786,880591,walk,0.0571,-0.1831,0.7432,-1.1597,-4.3335,6.2866
2025-05-29 06:14:33.833,880641,walk,0.103,0.0742,0.8628,-3.6621,-5.0659,3.3569
2025-05-29 06:14:33.882,880691,walk,-0.1387,0.2983,1.7832,-2.5635,5.6152,-8.4839
2025-05-29 06:14:33.932,880741,walk,-0.0527,0.4966,1.5928,-7.3853,5.4321,-8.7891
2025-05-29 06:14:33.983,880791,walk,-0.0117,0.0186,1.1611,-6.1035,-2.9907,-2.6245
2025-05-29 06:14:34.032,880841,walk,-0.0112,-0.5034,2.1348,-14.6484,-6.4697,4.3945
2025-05-29 06:14:34.082,880891,walk,0.0288,-0.1929,1.1084,-0.1221,-2.5635,7.6294
2025-05-29 06:14:34.132,880941,walk,0.0391,-0.0615,0.6533,-2.6855,-6.6528,4.2725
2025-05-29 06:14:34.185,880991,walk,-0.0737,0.4048,1.1753,-2.5635,8.7891,-5.4932
2025-05-29 06:14:34.232,881041,walk,-0.0068,-0.0068,1.335,-4.0894,1.3428,-8.8501
2025-05-29 06:14:34.282,881091,walk,0.083,-0.1177,1.0283,-6.897,-6.0425,-3.6621
2025-05-29 06:14:34.332,881141,walk,0.0977,-0.3198,1.8828,-3.0518,-16.4795,1.5869
2025-05-29 06:14:34.382,881191,walk,-0.0903,0.0005,1.4727,0.3052,3.3569,2.6245
2025-05-29 06:14:34.432,881241,walk,-0.0249,-0.2593,1.0015,0.1831,-4.2114,5.0049
2025-05-29 06:14:34.483,881291,walk,-0.1113,0.5547,1.7236,-0.5493,5.249,-6.4697
2025-05-29 06:14:34.532,881341,walk,-0.1177,-0.0088,1.6143,-6.4697,3.1128,-4.8828
2025-05-29 06:14:34.582,881391,walk,0.0859,-0.187,1.1123,-5.0049,-7.019,-1.6479
2025-05-29 06:14:34.632,881441,walk,0.0122,-0.1978,1.4829,-4.5776,-4.2114,2.9297
2025-05-29 06:14:34.682,881491,walk,-0.0317,-0.3203,1.1245,-4.0283,2.1362,5.127
2025-05-29 06:14:34.733,881541,walk,0.0498,0.126,0.9326,-2.4414,-6.2256,3.8452
2025-05-29 06:14:34.782,881591,walk,0.0039,-0.0361,1.5313,-4.0894,-6.4697,-2.3193
2025-05-29 06:14:34.832,881641,walk,0.0024,0.1348,1.4258,-9.7046,7.2632,-7.2632
2025-05-29 06:14:34.883,881691,walk,0.0361,0.1123,0.957,-9.0332,-2.8076,-5.127
2025-05-29 06:14:34.932,881741,walk,0.0933,-0.3379,1.2778,-6.6528,-6.1646,3.9062
2025-05-29 06:14:34.983,881791,walk,-0.0581,-0.2061,1.0444,-1.4038,-0.8545,6.2866
2025-05-29 06:14:35.032,881841,walk,0.0654,-0.0684,0.8467,-5.4932,-5.8594,4.3945
2025-05-29 06:14:35.082,881891,walk,0.0454,-0.0352,1.4805,-7.8125,-1.8311,-1.8311
2025-05-29 06:14:35.132,881941,walk,-0.0459,0.0176,1.647,-13.3667,13.0005,-4.3945
2025-05-29 06:14:35.182,881991,walk,0.0234,0.0889,1.2671,-6.4087,-1.8311,-4.3945
2025-05-29 06:14:35.232,882041,walk,0.001,-0.5947,2.1035,-10.498,-4.2114,3.6621
2025-05-29 06:14:35.284,882091,walk,-0.0532,-0.1587,1.6147,-0.8545,6.1035,3.2959
2025-05-29 06:14:35.332,882141,walk,-0.0049,-0.1245,0.8823,-4.7607,-5.7983,3.6011
2025-05-29 06:14:35.382,882191,walk,0.1167,0.125,0.9438,-0.4272,3.6621,-2.4414
2025-05-29 06:14:35.432,882241,walk,-0.0562,0.0791,1.5728,-11.7188,8.667,-7.3242
2025-05-29 06:14:35.482,882291,walk,0.0688,0.1509,1.0571,-6.958,-1.2817,-3.0518
2025-05-29 06:14:35.532,882341,walk,0.0903,-0.5703,2.2754,-14.7095,-8.728,2.9907
2025-05-29 06:14:35.587,882391,walk,-0.0537,-0.022,1.6104,1.0376,6.6528,4.2725
2025-05-29 06:14:35.632,882441,walk,0.064,-0.105,0.8652,-4.0283,-5.188,3.7842
2025-05-29 06:14:35.681,882491,walk,0.1128,-0.2622,0.8862,-0.6714,1.0376,2.1973
2025-05-29 06:14:35.732,882541,walk,-0.0278,0.1631,1.3105,-9.1553,7.6294,-6.7749
2025-05-29 06:14:35.782,882591,walk,0.0903,-0.0288,1.1191,-5.6763,-4.3945,-2.6855
2025-05-29 06:14:35.833,882641,walk,0.2065,-0.0552,0.5195,-10.2539,-18.6768,4.6387
2025-05-29 06:14:35.882,882691,walk,-0.0913,0.0337,1.3501,-2.4414,0.9155,4.5776
2025-05-29 06:14:35.936,882741,walk,0.0366,-0.1211,0.9287,0.6104,-5.249,4.8218
2025-05-29 06:14:35.982,882791,walk,0.0776,-0.0947,0.7124,-5.7983,-0.8545,-4.3945
2025-05-29 06:14:36.032,882841,walk,0.0156,0.1167,1.5767,-11.2915,9.4604,-4.8828
2025-05-29 06:14:36.082,882891,walk,0.1084,-0.1367,0.9209,-3.2349,-3.1128,-2.9907
2025-05-29 06:14:36.132,882941,walk,0.1392,-0.7285,0.2969,-2.8687,-31.311,10.9863
2025-05-29 06:14:36.182,882991,walk,-0.0161,-0.1855,0.8311,-4.0283,-2.6855,4.8828
2025-05-29 06:14:36.232,883041,walk,0.0615,-0.2192,0.3931,-1.8311,-7.6294,3.6011
2025-05-29 06:14:36.282,883091,walk,-0.0298,-0.6348,0.4316,-6.958,3.7842,-0.6714
2025-05-29 06:14:36.332,883141,walk,-0.0869,-0.0967,1.1982,-10.2539,6.8359,-3.6621
2025-05-29 06:14:36.382,883191,walk,0.0923,-0.0488,1.0059,-6.3477,-0.6104,-2.9907
2025-05-29 06:14:36.433,883241,walk,0.0107,-0.2432,0.4102,-11.8408,-24.8413,6.2256
2025-05-29 06:14:36.482,883291,walk,0.0,-0.1157,0.4985,-1.8311,-2.8687,5.249
2025-05-29 06:14:36.532,883341,walk,0.0122,-0.1084,0.3877,-1.4648,-7.2632,3.1738
2025-05-29 06:14:36.582,883391,walk,-0.0381,-0.5703,0.6567,-3.9062,-4.5776,-0.4883
2025-05-29 06:14:36.632,883441,walk,-0.021,0.2017,0.6836,-8.3008,2.5635,-6.7139
2025-05-29 06:14:36.683,883491,walk,-0.0122,0.0923,0.855,-6.7749,-0.1831,-3.479
2025-05-29 06:14:36.732,883541,walk,0.0679,-0.2427,0.9419,-8.4839,-20.813,3.1738
2025-05-29 06:14:36.782,883591,walk,0.0112,-0.1323,0.8047,-3.479,-0.9155,5.6152
2025-05-29 06:14:36.832,883641,walk,0.0181,-0.1987,0.7021,-2.6855,-3.9062,2.1973
2025-05-29 06:14:36.883,883691,walk,0.123,-0.0283,0.9341,-1.9531,-4.3945,-9.2163
2025-05-29 06:14:36.932,883741,walk,-0.0029,0.0811,0.9639,-7.7515,3.6011,-2.9907
2025-05-29 06:14:36.982,883791,walk,0.0249,-0.0376,0.8276,-4.0894,-5.0659,0.6104
2025-05-29 06:14:37.032,883841,walk,0.1245,-0.1226,0.7427,-6.8359,-17.395,4.3335
2025-05-29 06:14:37.082,883891,walk,-0.0273,0.0493,0.8838,-4.1504,1.77,1.9531
2025-05-29 06:14:37.132,883941,walk,0.0186,0.0781,0.8901,-0.7935,-4.2114,8.5449
2025-05-29 06:14:37.182,883991,walk,-0.0117,0.1899,1.1108,-4.4556,-5.249,19.6533
2025-05-29 06:14:37.232,884041,walk,-0.0771,0.2437,1.1782,-6.3477,1.4648,38.269
2025-05-29 06:14:37.282,884091,walk,-0.0088,0.0513,0.8867,-8.1787,-1.2207,48.3398
2025-05-29 06:14:37.332,884141,walk,0.0952,-0.2695,-0.2231,-7.9956,-15.9302,57.0068
2025-05-29 06:14:37.383,884191,walk,0.0371,-0.1108,0.4937,-13.4277,-6.5308,72.5708
2025-05-29 06:14:37.432,884241,walk,0.0435,0.022,0.4668,-4.0894,-3.1128,79.0405
2025-05-29 06:14:37.482,884291,walk,0.1123,0.6064,0.6592,-9.3994,-8.9111,60.9131
2025-05-29 06:14:37.532,884341,walk,-0.0635,0.0781,1.7485,-3.9062,10.0098,67.1997
2025-05-29 06:14:37.582,884391,walk,-0.0435,0.1016,0.9692,-5.188,2.6855,68.3594
2025-05-29 06:14:37.632,884441,walk,0.3145,-0.5718,-0.7476,-8.667,-19.8364,63.0493
2025-05-29 06:14:37.682,884491,walk,-0.0283,0.1914,0.312,-8.1177,-3.54,77.1484
2025-05-29 06:14:37.732,884541,walk,-0.04,0.1123,0.2666,-3.9062,-0.9766,88.4399
2025-05-29 06:14:37.782,884591,walk,0.1509,0.0146,0.6357,-34.668,-13.4888,71.7163
2025-05-29 06:14:37.832,884641,walk,0.0654,0.1089,1.1592,0.8545,15.2588,70.1904
2025-05-29 06:14:37.882,884691,walk,-0.0654,0.1655,1.1592,-5.3711,1.2207,66.2231
2025-05-29 06:14:37.932,884741,walk,0.0718,-0.644,-0.2603,-7.8125,-20.5688,62.9272
2025-05-29 06:14:37.983,884791,walk,-0.0308,-0.0601,0.3389,-7.5073,-5.9204,76.9653
2025-05-29 06:14:38.032,884841,walk,0.0659,0.0566,0.4678,1.2207,0.4272,78.9795
2025-05-29 06:14:38.082,884891,walk,-0.0371,-0.186,0.8911,-37.5977,-16.2964,53.5889
2025-05-29 06:14:38.132,884941,walk,-0.0288,0.0933,1.2427,6.2866,12.2681,49.6216
2025-05-29 06:14:38.182,884991,walk,-0.0098,-0.1177,1.0742,-1.8921,-4.5776,38.4521
2025-05-29 06:14:38.232,885041,walk,0.1401,-0.3218,0.1069,-2.6245,-11.5356,17.1509
2025-05-29 06:14:38.282,885091,walk,-0.0054,-0.1699,0.645,-7.2021,-1.5259,20.874
2025-05-29 06:14:38.332,885141,walk,0.0674,-0.0654,0.7437,-1.4038,1.0376,17.5781
2025-05-29 06:14:38.382,885191,walk,0.0972,0.356,1.1113,-15.1978,-22.8271,-1.8311
2025-05-29 06:14:38.432,885241,walk,0.0181,-0.0205,1.4912,-10.6201,8.9111,0.6104
2025-05-29 06:14:38.482,885291,walk,0.0347,-0.0454,0.8584,-4.7607,-4.0894,2.1362
2025-05-29 06:14:38.532,885341,walk,0.1523,-0.3047,0.6182,-4.2114,-17.6392,3.7842
2025-05-29 06:14:38.582,885391,walk,0.063,-0.0264,0.7695,1.3428,1.2817,4.8218
2025-05-29 06:14:38.632,885441,walk,0.0684,-0.1973,0.6216,-3.8452,-5.127,3.6011
2025-05-29 06:14:38.682,885491,walk,0.1777,-0.1753,1.7832,2.8687,-19.9585,-5.6152
2025-05-29 06:14:38.732,885541,walk,-0.0098,0.2964,1.5952,-7.3853,6.4697,-5.249
2025-05-29 06:14:38.782,885591,walk,0.0649,0.0312,0.9072,-1.0986,-1.6479,-2.5024
2025-05-29 06:14:38.832,885641,walk,0.208,0.3867,0.5718,1.8311,-12.8174,2.3804
2025-05-29 06:14:38.882,885691,walk,0.0859,-0.0508,1.0557,-4.5776,4.3335,4.8828
2025-05-29 06:14:38.934,885741,walk,0.1167,0.0459,0.9043,-2.0142,-1.5259,1.3428
2025-05-29 06:14:38.982,885791,walk,0.2075,-0.0547,1.5508,-4.9438,-23.4985,-5.127
2025-05-29 06:14:39.034,885841,walk,-0.019,0.2266,1.4097,-11.7188,9.0942,-1.4038
2025-05-29 06:14:39.082,885891,walk,0.0405,0.106,1.042,-2.1362,1.4038,-1.0376
2025-05-29 06:14:39.132,885941,walk,0.1958,-0.1724,0.8145,-0.4272,-2.3193,4.6387
2025-05-29 06:14:39.183,885991,walk,0.084,0.0903,1.0215,-0.8545,3.479,5.9204
2025-05-29 06:14:39.232,886041,walk,0.0918,-0.2563,1.125,2.3193,-9.2163,6.1646
2025-05-29 06:14:39.282,886091,walk,0.1069,0.7192,1.3652,-10.437,-21.3623,-7.7515
2025-05-29 06:14:39.332,886141,walk,-0.0151,0.4443,1.7192,-4.6387,15.625,-2.8687
2025-05-29 06:14:39.383,886191,walk,0.082,0.0347,1.1294,-7.2632,-3.2349,-4.9438
2025-05-29 06:14:39.433,886241,walk,0.1133,-0.3813,1.4893,-8.0566,-0.7935,4.0283
2025-05-29 06:14:39.482,886291,walk,-0.0762,-0.2529,1.6274,1.6479,1.709,3.3569
2025-05-29 06:14:39.532,886341,walk,0.0308,0.1592,1.2446,0.7935,-13.7329,5.4321
2025-05-29 06:14:39.582,886391,walk,-0.0894,0.4731,1.5894,-20.0806,-18.1885,-7.3853
2025-05-29 06:14:39.632,886441,walk,-0.0562,0.3599,1.959,-4.9438,17.6392,-5.3711
2025-05-29 06:14:39.682,886491,walk,0.043,0.0322,1.3345,-9.9487,-5.9204,-6.0425
2025-05-29 06:14:39.732,886541,walk,-0.0981,-0.644,1.4561,13.5498,-18.9819,9.0942
2025-05-29 06:14:39.782,886591,walk,-0.1245,-0.1196,2.0596,-7.3242,10.9863,2.5635
2025-05-29 06:14:39.832,886641,walk,0.1147,0.106,1.1777,2.5635,-12.8174,1.9531
2025-05-29 06:14:39.882,886691,walk,0.2104,0.207,1.2056,-29.9683,-21.8506,-6.3477
2025-05-29 06:14:39.932,886741,walk,-0.0122,0.1758,2.0566,-5.6152,22.522,-2.8076
2025-05-29 06:14:39.982,886791,walk,0.0464,0.0649,1.2915,-5.9204,-6.0425,-6.958
2025-05-29 06:14:40.032,886841,walk,-0.0708,-0.7046,1.5693,19.2871,-23.7427,9.1553
2025-05-29 06:14:40.082,886891,walk,-0.1348,-0.0112,1.958,-7.2021,13.6719,-1.8921
2025-05-29 06:14:40.135,886941,walk,-0.0454,0.126,1.2598,1.709,-5.6763,1.9531
2025-05-29 06:14:40.182,886991,walk,0.207,0.1045,1.0483,-29.9072,-19.4092,-2.8076
2025-05-29 06:14:40.232,887041,walk,-0.1094,0.3457,2.0537,-8.2397,19.4092,-4.2114
2025-05-29 06:14:40.287,887091,walk,-0.0391,0.2324,1.4312,-10.376,-2.5024,-5.6763
2025-05-29 06:14:40.332,887141,walk,0.0854,-0.1724,1.7124,14.1602,-25.6348,5.3101
2025-05-29 06:14:40.382,887191,walk,-0.208,-0.2505,2.0308,-6.4697,14.3433,2.9297
2025-05-29 06:14:40.432,887241,walk,-0.0864,0.2637,1.2554,4.7607,-4.2114,2.1973
2025-05-29 06:14:40.482,887291,walk,0.1436,-0.4189,1.3916,-34.4238,-20.9961,-1.709
2025-05-29 06:14:40.532,887341,walk,0.0508,0.1123,1.8853,-8.9722,17.8833,-5.0049
2025-05-29 06:14:40.582,887391,walk,0.0459,-0.0103,1.1304,-5.7373,-5.249,-2.9297
2025-05-29 06:14:40.632,887441,walk,-0.0151,-0.5059,1.499,-11.7188,-17.8223,1.4038
2025-05-29 06:14:40.682,887491,walk,-0.0645,-0.0576,1.2485,3.8452,0.1831,1.8921
2025-05-29 06:14:40.732,887541,walk,0.0586,-0.0493,0.7705,1.3428,-2.8076,4.0894
2025-05-29 06:14:40.782,887591,walk,0.1646,0.2573,1.2446,8.0566,-17.0288,-3.7231
2025-05-29 06:14:40.832,887641,walk,-0.0396,-0.0015,1.3721,-7.8125,2.8076,-2.0752
2025-05-29 06:14:40.882,887691,walk,0.1064,-0.0176,0.7876,-5.9204,-3.8452,-3.7842
2025-05-29 06:14:40.932,887741,walk,0.1729,-0.7637,1.4136,-12.2681,-16.2354,7.8735
2025-05-29 06:14:40.982,887791,walk,-0.104,-0.1245,1.4121,4.7607,4.5776,4.4556
2025-05-29 06:14:41.032,887841,walk,0.0562,-0.2041,0.8931,1.4648,-3.54,4.6387
2025-05-29 06:14:41.082,887891,walk,0.168,-0.1685,1.1533,-5.0049,-17.4561,-1.5259
2025-05-29 06:14:41.132,887941,walk,0.1162,0.0078,1.147,-6.897,9.1553,-5.6152
2025-05-29 06:14:41.184,887991,walk,-0.0381,0.0571,1.0039,-8.2397,-1.5259,-4.6997
2025-05-29 06:14:41.232,888041,walk,-0.0288,0.0669,1.4468,-1.4648,-16.2354,2.9297
2025-05-29 06:14:41.282,888091,walk,-0.127,0.1377,1.627,-0.7324,10.376,2.3193
2025-05-29 06:14:41.332,888141,walk,-0.0073,-0.1909,1.2974,-2.3804,0.3662,3.479
2025-05-29 06:14:41.382,888191,walk,0.0068,-1.123,1.6802,-21.1182,-17.395,-0.7324
2025-05-29 06:14:41.432,888241,walk,0.0366,-0.25,1.7559,-9.1553,14.8315,-3.7231
2025-05-29 06:14:41.481,888291,walk,-0.0088,0.042,1.2607,-6.2256,2.9907,-2.9907
2025-05-29 06:14:41.532,888341,walk,-0.0068,-0.438,1.4233,-8.5449,-5.4932,8.728
2025-05-29 06:14:41.582,888391,walk,-0.0615,-0.2124,1.189,0.4883,3.0518,3.418
2025-05-29 06:14:41.632,888441,walk,0.0532,-0.1899,0.834,-1.6479,-3.418,4.6387
2025-05-29 06:14:41.682,888491,walk,0.1372,-0.1353,1.4727,0.2441,-11.5967,-0.8545
2025-05-29 06:14:41.732,888541,walk,0.105,-0.1445,1.2588,-14.5874,10.9253,-6.4697
2025-05-29 06:14:41.782,888591,walk,0.019,0.1689,1.1519,-8.3618,2.6245,-3.6621
2025-05-29 06:14:41.832,888641,walk,0.123,-0.4648,1.4546,-10.5591,-9.7046,9.1553
2025-05-29 06:14:41.882,888691,walk,0.0283,-0.2944,1.0596,-1.6479,0.7324,7.5073
2025-05-29 06:14:41.932,888741,walk,0.0381,-0.2373,0.98,0.6104,-1.5869,3.8452
2025-05-29 06:14:41.982,888791,walk,0.0322,-0.2715,1.2769,-6.958,-8.4839,-3.479
2025-05-29 06:14:42.033,888841,walk,0.1211,-0.1836,1.1909,-10.2539,9.3384,-5.6152
2025-05-29 06:14:42.083,888891,walk,0.0254,0.0781,1.2656,-5.127,-0.4272,-4.3335
2025-05-29 06:14:42.132,888941,walk,0.019,-0.6602,1.9849,-3.9673,-12.7563,4.5776
2025-05-29 06:14:42.182,888991,walk,-0.1167,-0.1699,1.7949,-1.2817,7.9346,5.4932
2025-05-29 06:14:42.232,889041,walk,0.0474,-0.1743,1.041,0.7935,-3.7231,4.0894
2025-05-29 06:14:42.285,889091,walk,0.1245,0.1587,0.6787,-2.6245,-6.1035,-8.3618
2025-05-29 06:14:42.332,889141,walk,-0.0547,0.2495,1.2837,-10.3149,8.4839,-3.6011
2025-05-29 06:14:42.382,889191,walk,0.0449,0.1709,0.9043,-2.6855,-3.3569,-2.6855
2025-05-29 06:14:42.432,889241,walk,0.165,0.5244,0.085,-7.019,-19.5923,-3.1738
2025-05-29 06:14:42.483,889291,walk,0.0132,-0.1396,0.6807,2.7466,-0.5493,5.127
2025-05-29 06:14:42.532,889341,walk,0.0845,-0.0508,0.7285,-0.1221,-8.4229,3.1738
2025-05-29 06:14:42.581,889391,walk,0.0176,0.2524,0.6509,-0.4883,-15.686,-8.9722
2025-05-29 06:14:42.633,889441,walk,-0.0542,0.1357,1.3066,-9.8267,6.1035,-4.1504
2025-05-29 06:14:42.682,889491,walk,-0.0142,0.1245,0.9912,-4.6997,-2.5635,-5.0049
2025-05-29 06:14:42.732,889541,walk,0.2734,-0.314,0.0493,-2.3804,-26.3062,7.5073
2025-05-29 06:14:42.782,889591,walk,0.0903,-0.1948,0.9766,0.8545,1.1597,4.6997
2025-05-29 06:14:42.833,889641,walk,0.0479,-0.0469,0.6641,-1.8311,-5.4321,4.0894
2025-05-29 06:14:42.882,889691,walk,0.0093,-0.1055,0.8857,-3.0518,-14.7705,-5.7373
2025-05-29 06:14:42.932,889741,walk,0.0376,0.0854,1.0625,-9.4604,5.3101,-4.6997
2025-05-29 06:14:42.982,889791,walk,0.0444,-0.0654,0.8169,-4.6997,-0.6714,-2.6245
2025-05-29 06:14:43.032,889841,walk,0.2466,-0.0952,0.1558,-5.6763,-24.8413,1.77
2025-05-29 06:14:43.082,889891,walk,0.0029,0.2319,0.9805,0.9766,3.7842,2.9297
2025-05-29 06:14:43.132,889941,walk,0.04,-0.1499,0.751,-1.9531,-2.6855,4.2114
2025-05-29 06:14:43.182,889991,walk,0.1738,-0.0835,0.6904,1.4648,-12.0239,-7.3853
2025-05-29 06:14:43.234,890041,walk,-0.0156,-0.0273,1.2803,-9.7046,7.3853,-1.8311
2025-05-29 06:14:43.282,890091,walk,0.1338,-0.2251,0.9126,-5.7983,-3.418,-0.4272
2025-05-29 06:14:43.334,890141,walk,0.1035,0.5986,0.5322,-6.5308,-15.0757,-3.0518
2025-05-29 06:14:43.382,890191,walk,0.0181,0.0864,0.9619,-0.4272,2.1973,1.8921
2025-05-29 06:14:43.432,890241,walk,0.0596,0.0029,0.792,1.2817,-2.8687,2.3193
2025-05-29 06:14:43.482,890291,walk,0.1113,-0.0981,0.8638,1.0376,-8.7891,-7.4463
2025-05-29 06:14:43.532,890341,walk,-0.0029,0.022,1.1138,-7.6294,3.7231,-1.3428
2025-05-29 06:14:43.582,890391,walk,-0.022,-0.0229,1.0908,-4.2725,-3.6621,-1.8311
2025-05-29 06:14:43.632,890441,walk,0.1484,0.5586,0.4365,-5.4932,-10.8032,-2.2583
2025-05-29 06:14:43.682,890491,walk,0.0181,0.0986,0.7759,-0.7935,0.8545,4.3945
2025-05-29 06:14:43.732,890541,walk,0.0215,-0.0991,0.9624,-1.2207,-2.8687,2.2583
2025-05-29 06:14:43.782,890591,walk,0.0981,0.2349,1.0454,3.8452,-11.7798,-10.0098
2025-05-29 06:14:43.832,890641,walk,0.043,0.0723,1.1406,-7.9346,6.1646,-1.77
2025-05-29 06:14:43.883,890691,walk,0.1318,-0.0605,0.7661,-3.7842,-1.709,-0.3052
2025-05-29 06:14:43.932,890741,walk,0.3354,-0.3335,0.2803,-9.9487,-13.0005,4.5166
2025-05-29 06:14:43.982,890791,walk,0.0513,-0.1333,0.5464,-0.6104,-1.4038,4.0283
2025-05-29 06:14:44.032,890841,walk,0.001,-0.1562,1.0273,-3.1738,-2.1362,3.2959
2025-05-29 06:14:44.163,890891,walk,-0.022,-0.2993,1.0479,1.3428,-7.019,-3.2959
2025-05-29 06:14:44.462,890941,walk,-0.0122,-0.1182,1.0703,-7.6904,5.3101,-3.1738
2025-05-29 06:14:44.464,890991,walk,0.085,0.0205,1.02,-5.3101,-0.061,-2.4414
2025-05-29 06:14:44.465,891041,walk,0.2124,0.0312,0.9121,-10.437,-15.9912,4.7607
2025-05-29 06:14:44.646,891091,walk,-0.0889,0.209,1.1045,-0.6714,2.5635,0.1831
2025-05-29 06:14:44.647,891141,walk,-0.0381,-0.0815,0.958,1.8311,-3.479,2.2583
2025-05-29 06:14:44.649,891191,walk,0.1094,-0.0283,0.8071,2.5635,-11.5967,-6.4697
2025-05-29 06:14:44.650,891241,walk,-0.0132,0.0298,1.0962,-6.0425,5.6152,-3.0518
2025-05-29 06:14:44.651,891291,walk,0.0454,0.0674,1.0503,-6.2256,-1.0986,-3.0518
2025-05-29 06:14:44.652,891341,walk,0.188,0.146,0.6904,-4.5776,-8.667,2.5635
2025-05-29 06:14:44.801,891391,walk,-0.0303,-0.0659,0.9297,-2.7466,4.2114,5.8594
2025-05-29 06:14:44.803,891441,walk,0.0469,-0.0981,0.9712,-1.3428,-2.9907,3.9673
2025-05-29 06:14:45.134,891491,walk,0.1797,0.0781,1.2871,2.5024,-12.6953,-10.498
2025-05-29 06:14:45.136,891541,walk,-0.0679,0.2886,0.9956,-6.7749,5.127,-6.4697
2025-05-29 06:14:45.137,891591,walk,0.0605,0.1611,0.8779,-4.3945,-0.3052,-2.9297
2025-05-29 06:14:45.138,891641,walk,0.231,0.0059,1.002,-9.7656,-13.916,3.6621
2025-05-29 06:14:45.491,891691,walk,-0.0142,0.02,1.0918,-0.7324,2.8687,2.2583
2025-05-29 06:14:45.492,891741,walk,0.0522,-0.0103,0.835,-1.3428,-4.0894,2.5024
2025-05-29 06:14:45.493,891791,walk,0.1333,-0.0415,1.1143,1.4648,-5.9204,-7.8125
2025-05-29 06:14:45.494,891841,walk,-0.0547,0.0234,1.082,-7.2632,5.7983,-5.4321
2025-05-29 06:14:45.494,891891,walk,0.0366,-0.0776,1.0132,-6.2866,-0.3662,-2.8687
2025-05-29 06:14:45.495,891941,walk,0.2153,-0.2031,0.6982,-7.8735,-14.3433,5.9204
2025-05-29 06:14:45.495,891991,walk,0.0122,-0.0552,0.9585,0.061,3.0518,5.3101
2025-05-29 06:14:45.495,892041,walk,0.0107,-0.0146,0.8989,-0.5493,-0.6104,4.2725
2025-05-29 06:14:45.826,892091,walk,0.0913,0.228,1.3374,-12.8174,-21.6064,-7.2021
2025-05-29 06:14:45.827,892141,walk,-0.0703,0.248,1.0244,-7.2021,2.2583,-4.7607
2025-05-29 06:14:45.829,892191,walk,0.0122,-0.0425,0.5039,-6.1035,-2.1973,-2.5024
2025-05-29 06:14:45.830,892241,walk,0.1548,-0.271,0.6367,-4.5166,-8.9722,2.6855
2025-05-29 06:14:45.831,892291,walk,0.0444,-0.1777,0.8643,-2.3804,2.9297,5.6763
2025-05-29 06:14:45.832,892341,walk,0.0615,0.002,0.8701,-3.2349,-1.8311,3.54
2025-05-29 06:14:45.833,892391,walk,0.0444,0.48,1.5449,2.5635,-12.4512,-12.9395
2025-05-29 06:14:45.835,892441,walk,-0.0176,0.1108,1.1191,-8.606,3.9062,-5.3711
2025-05-29 06:14:45.837,892491,walk,0.0518,-0.0586,0.5195,-8.3008,-4.1504,-0.5493
2025-05-29 06:14:45.905,892541,walk,0.1836,-0.1558,0.6909,-4.3945,-9.9487,3.1738
2025-05-29 06:14:45.906,892591,walk,0.0073,0.0181,0.728,-3.7231,-0.3662,3.7231
2025-05-29 06:14:45.906,892641,walk,-0.0312,-0.0864,0.8657,-5.249,-4.5166,1.9531
2025-05-29 06:14:45.907,892691,walk,-0.0522,0.2622,1.1372,0.3052,-6.5308,-9.9487
2025-05-29 06:14:45.932,892741,walk,0.0098,0.1362,0.9966,-6.5308,3.7231,-3.7231
2025-05-29 06:14:45.982,892791,walk,0.0156,-0.0107,0.8184,-7.2021,-5.6763,-1.6479
2025-05-29 06:14:46.032,892841,walk,0.0396,-0.0581,0.9443,-7.9956,-14.7705,3.7231
2025-05-29 06:14:46.082,892891,walk,-0.0234,-0.1323,0.8101,-2.8687,0.6714,4.0283
2025-05-29 06:14:46.132,892941,walk,0.0054,0.0278,0.8335,-4.6387,-4.2725,1.0376
2025-05-29 06:14:46.182,892991,walk,0.0283,-0.0293,0.9902,1.2207,-4.4556,-8.4839
2025-05-29 06:14:46.232,893041,walk,-0.0112,0.1304,1.103,-6.7749,3.7842,-4.2114
2025-05-29 06:14:46.282,893091,walk,0.0078,0.1016,0.8579,-4.8828,-4.7607,-2.6245
2025-05-29 06:14:46.332,893141,walk,0.2061,-0.542,0.8247,-7.3853,-14.5264,7.5684
2025-05-29 06:14:46.382,893191,walk,0.0269,-0.0562,1.0371,0.0,2.7466,0.6714
2025-05-29 06:14:46.432,893241,walk,0.0205,0.0127,0.8267,-4.0894,-2.3193,-0.5493
2025-05-29 06:14:46.483,893291,walk,-0.0122,0.5171,1.1675,-0.3052,-4.3945,-9.2163
2025-05-29 06:14:46.532,893341,walk,0.0127,0.2837,1.1719,-6.7139,4.0283,-6.2866
2025-05-29 06:14:46.586,893391,walk,0.0249,0.0532,0.7305,-5.188,-5.4932,-6.6528
2025-05-29 06:14:46.632,893441,walk,0.1011,-0.1157,1.0962,-6.7139,-12.5732,-1.2817
2025-05-29 06:14:46.682,893491,walk,0.0122,0.0068,0.936,-0.1221,1.2817,-4.2725
2025-05-29 06:14:46.732,893541,walk,0.0234,-0.0605,0.8306,-4.8218,-2.1362,-4.3945
2025-05-29 06:14:46.782,893591,walk,0.1367,0.272,0.9175,-1.2207,-4.3335,-14.5874
2025-05-29 06:14:46.832,893641,walk,0.0688,0.1162,0.9668,-4.9438,3.418,-19.3481
2025-05-29 06:14:46.887,893691,walk,0.0615,0.0337,0.6626,-6.958,-3.9673,-16.7847
2025-05-29 06:14:46.932,893741,walk,0.0796,-0.3311,1.3633,-9.3384,-16.9678,-6.3477
2025-05-29 06:14:46.982,893791,walk,-0.0166,-0.0908,1.2065,0.0,4.5776,-11.5356
2025-05-29 06:14:47.032,893841,walk,0.0259,0.04,0.8965,-0.5493,-1.709,-9.3384
2025-05-29 06:14:47.082,893891,walk,0.1548,0.0903,0.853,-1.5869,-8.1787,-21.3623
2025-05-29 06:14:47.132,893941,walk,0.0371,-0.04,1.0835,-4.5166,2.7466,-33.2642
2025-05-29 06:14:47.182,893991,walk,0.0352,0.0449,0.8013,-9.3384,-3.6011,-33.8135
2025-05-29 06:14:47.232,894042,walk,0.0942,-0.146,1.1294,-1.77,-14.7705,-22.522
2025-05-29 06:14:47.282,894091,walk,0.0171,-0.0425,1.2573,-1.9531,7.1411,-32.3486
2025-05-29 06:14:47.332,894141,walk,-0.0176,0.0127,1.0952,3.1128,1.0986,-26.7334
2025-05-29 06:14:47.382,894191,walk,-0.0176,0.3125,1.2563,1.4648,-11.2305,-31.0059
2025-05-29 06:14:47.432,894241,walk,-0.0806,0.168,1.0879,-2.8076,-1.5869,-44.1895
2025-05-29 06:14:47.483,894291,walk,0.002,0.1953,0.6245,-6.8359,-7.0801,-41.748
2025-05-29 06:14:47.533,894341,walk,0.0337,0.0742,1.0229,1.4648,-5.9814,-26.3672
2025-05-29 06:14:47.582,894391,walk,-0.0029,-0.002,1.541,-2.7466,10.1318,-30.0293
2025-05-29 06:14:47.632,894441,walk,-0.0029,0.0835,1.2686,5.3711,0.3052,-30.3345
2025-05-29 06:14:47.682,894491,walk,0.0859,0.3647,1.0781,5.7373,-13.0005,-33.8745
2025-05-29 06:14:47.732,894541,walk,-0.1504,-0.0454,1.2368,-4.5776,-2.6855,-40.7104
2025-05-29 06:14:47.782,894591,walk,0.0522,-0.0811,0.5649,-9.1553,-7.6294,-40.3442
2025-05-29 06:14:47.832,894641,walk,-0.0083,0.0674,1.0303,-5.7983,-0.1221,-29.4189
2025-05-29 06:14:47.882,894691,walk,0.0005,0.0073,1.4863,2.5024,10.0098,-35.4614
2025-05-29 06:14:47.933,894741,walk,-0.0327,0.0757,1.2148,3.7842,-1.3428,-27.0386
2025-05-29 06:14:47.982,894791,walk,-0.0703,0.1841,1.3813,4.6387,-13.1836,-24.9634
2025-05-29 06:14:48.032,894841,walk,-0.0791,0.1514,1.1772,-2.1973,-3.54,-45.5322
2025-05-29 06:14:48.082,894891,walk,-0.0166,0.1636,0.7275,-7.019,-9.1553,-39.0015
2025-05-29 06:14:48.132,894941,walk,-0.1069,0.5879,0.853,0.6714,-1.5259,-26.6113
2025-05-29 06:14:48.182,894991,walk,0.0,0.1553,1.355,-0.3052,9.2163,-27.4658
2025-05-29 06:14:48.232,895041,walk,-0.0029,0.0913,1.2441,3.418,-0.6714,-24.9023
2025-05-29 06:14:48.282,895091,walk,-0.0415,0.2378,1.4058,4.7607,-15.625,-21.9116
2025-05-29 06:14:48.332,895141,walk,0.0625,-0.1274,1.0625,-1.9531,-4.2114,-37.3535
2025-05-29 06:14:48.382,895191,walk,0.0576,-0.0469,0.5679,-11.2915,-6.8359,-35.3394
2025-05-29 06:14:48.432,895241,walk,0.0664,0.2339,0.6475,-9.0332,-2.6855,-25.3296
2025-05-29 06:14:48.482,895291,walk,0.0552,-0.02,1.2251,-1.1597,6.6528,-24.0479
2025-05-29 06:14:48.532,895341,walk,-0.0034,0.0381,1.1792,-0.5493,-3.7842,-15.1367
2025-05-29 06:14:48.582,895391,walk,-0.1074,0.3423,1.6753,3.1128,-11.2915,-9.1553
2025-05-29 06:14:48.634,895441,walk,0.0181,0.0137,1.0127,-0.7935,-2.8076,-13.3057
2025-05-29 06:14:48.683,895491,walk,0.0693,0.0029,0.6719,-2.8076,-7.2021,-8.1177
2025-05-29 06:14:48.736,895541,walk,0.1465,0.2832,0.6523,-2.7466,-1.5259,-1.8921
2025-05-29 06:14:48.782,895591,walk,-0.0337,0.1226,1.3877,-7.8125,-0.061,0.3052
2025-05-29 06:14:48.832,895641,walk,0.0718,0.0767,0.8701,-9.3384,-6.2256,1.0986
2025-05-29 06:14:48.882,895691,walk,0.0513,0.1304,0.3271,0.9155,-11.7798,-3.9062
2025-05-29 06:14:48.932,895741,walk,0.1528,0.1807,0.7437,-1.8311,-0.1831,-6.4087
2025-05-29 06:14:48.982,895791,walk,0.1055,0.0068,0.8779,-3.2959,-5.8594,-3.9062
2025-05-29 06:14:49.032,895841,walk,0.1909,-0.4668,0.1748,-2.1362,-5.188,4.7607
2025-05-29 06:14:49.082,895891,walk,0.0352,0.0273,1.1411,-7.8735,1.1597,5.3101
2025-05-29 06:14:49.132,895941,walk,0.1587,0.0508,1.2642,-6.7139,-4.3335,1.9531
2025-05-29 06:14:49.182,895991,walk,0.0483,0.1606,0.4546,-2.6855,-0.5493,1.2817
2025-05-29 06:14:49.232,896041,walk,0.1348,0.0347,0.79,-5.8594,-3.3569,-10.8032
2025-05-29 06:14:49.282,896091,walk,0.1621,-0.0117,0.8027,-6.4087,-15.2588,-6.2866
2025-05-29 06:14:49.332,896141,walk,0.019,0.6279,0.0815,-2.3193,-1.4648,-0.5493
2025-05-29 06:14:49.382,896191,walk,0.1177,-0.2026,0.9731,-1.1597,-4.2114,7.0801
2025-05-29 06:14:49.432,896241,walk,0.1958,-0.2949,0.957,-5.3101,-19.7144,8.1787
2025-05-29 06:14:49.482,896291,walk,-0.04,-0.187,0.1851,-1.0376,1.8311,-7.6294
2025-05-29 06:14:49.532,896341,walk,-0.0342,0.2925,1.2817,-6.4087,3.1738,-8.1177
2025-05-29 06:14:49.582,896391,walk,0.1611,0.0542,0.686,-1.4038,-19.5313,-6.4697
2025-05-29 06:14:49.632,896441,walk,0.1001,-0.7187,-0.2021,-3.7842,2.5635,6.7139
2025-05-29 06:14:49.685,896491,walk,-0.0259,0.0312,1.0356,-4.3335,-2.6245,7.3853
2025-05-29 06:14:49.732,896541,walk,0.229,-0.248,0.6768,-5.8594,-20.4468,8.2397
2025-05-29 06:14:49.782,896591,walk,0.1611,0.0806,0.1504,-7.2021,-9.7656,-13.9771
2025-05-29 06:14:49.832,896641,walk,-0.0942,0.3916,2.084,-9.3994,13.6108,-6.2256
2025-05-29 06:14:49.882,896691,walk,0.0449,-0.2412,1.1943,-5.4932,-12.8174,-0.1831
2025-05-29 06:14:49.932,896741,walk,0.2241,0.2661,-0.1709,2.0142,-3.0518,0.4883
2025-05-29 06:14:49.982,896791,walk,0.0874,-0.1187,0.9932,-1.0376,-1.2817,7.3853
2025-05-29 06:14:50.032,896841,walk,0.1514,-0.1328,0.8521,-1.5869,-22.0947,6.6528
2025-05-29 06:14:50.082,896891,walk,-0.1187,0.3125,0.333,-0.6714,-1.2817,-8.3618
2025-05-29 06:14:50.132,896941,walk,-0.0933,0.2534,1.3931,-7.3242,3.1738,-7.019
2025-05-29 06:14:50.182,896991,walk,0.125,-0.0869,0.7554,-4.5166,-18.0664,-3.7842
2025-05-29 06:14:50.234,897041,walk,0.25,0.187,-0.2202,-0.7324,-9.0942,3.1738
2025-05-29 06:14:50.284,897091,walk,0.0479,0.0098,0.9297,-1.709,-0.3052,5.0659
2025-05-29 06:14:50.332,897141,walk,0.0903,-0.2427,0.7725,-1.1597,-19.104,6.8359
2025-05-29 06:14:50.382,897191,walk,-0.0513,0.3389,0.8833,-10.6201,-4.7607,-10.3149
2025-05-29 06:14:51.735,897241,walk,-0.27,0.1729,1.9663,-7.0801,6.6528,-8.0566
2025-05-29 06:14:51.737,897291,walk,-0.0283,-0.0063,1.0732,-2.5024,-15.0757,-6.5918
2025-05-29 06:14:51.738,897341,walk,-0.0596,0.4028,0.4336,3.3569,1.0986,-1.0376
2025-05-29 06:14:51.739,897391,walk,-0.0415,-0.0986,1.25,-2.4414,1.2207,2.5635
2025-05-29 06:14:51.740,897441,walk,0.0186,0.1323,1.1528,-2.1362,-9.6436,2.8076
2025-05-29 06:14:51.741,897491,walk,0.0073,0.7783,0.8535,-8.728,-14.7095,-13.6719
2025-05-29 06:14:51.742,897541,walk,-0.146,0.415,1.5293,-5.3101,3.54,-8.9111
2025-05-29 06:14:51.742,897591,walk,0.0576,-0.2539,0.7793,-4.3335,-10.498,-1.709
2025-05-29 06:14:51.743,897641,walk,-0.1914,0.9468,0.8774,2.3804,1.0376,-4.7607
2025-05-29 06:15:01.055,897691,walk,-0.1099,0.1929,1.2256,-6.7749,1.2207,-1.8921
2025-05-29 06:15:01.056,897741,walk,0.0337,-0.0986,1.0498,-4.7607,-5.249,0.3052
2025-05-29 06:15:01.057,897791,walk,-0.1162,-0.104,1.1802,0.061,-11.7798,-6.5918
2025-05-29 06:15:01.058,897841,walk,-0.0034,-0.1084,1.02,-6.3477,-0.061,-5.9814
2025-05-29 06:15:01.059,897891,walk,-0.001,-0.0059,0.8276,-9.8877,-4.3945,-7.8735
2025-05-29 06:15:01.061,897941,walk,-0.0791,0.8369,1.0093,-2.1362,-6.2866,-6.4697
2025-05-29 06:15:01.062,897991,walk,-0.0884,0.1533,1.3306,-6.2256,1.2207,-1.77
2025-05-29 06:15:01.063,898041,walk,0.0142,0.0679,1.0234,-5.8594,-4.5776,-1.2207
2025-05-29 06:15:01.064,898091,walk,-0.085,0.0532,0.9575,-1.8311,0.3052,-9.0942
2025-05-29 06:15:01.066,898141,walk,0.0352,0.1079,1.0649,-5.0659,3.479,-10.1929
2025-05-29 06:15:01.069,907879,walk,0.1313,0.188,0.9131,-1.2817,4.6387,1.5869
2025-05-29 06:15:01.120,907928,walk,0.1069,0.084,0.6704,-4.2725,-6.2866,4.3945
2025-05-29 06:15:01.171,907978,walk,-0.0156,0.397,1.0854,-7.6904,7.1411,-3.9062
2025-05-29 06:15:01.219,908028,walk,0.0161,0.4976,0.6484,-9.5825,4.6387,-6.7749
2025-05-29 06:15:01.269,908078,walk,0.021,-0.0195,0.4648,-6.8359,-2.0752,-2.3804
2025-05-29 06:15:01.319,908128,walk,0.0991,-0.5317,1.3901,-3.9673,14.4043,3.9673
2025-05-29 06:15:01.369,908178,walk,0.1196,-0.0142,0.6997,-1.1597,8.4839,1.5869
2025-05-29 06:15:01.420,908228,walk,-0.0024,-0.1299,0.7344,-5.127,-4.0283,5.127
2025-05-29 06:15:01.470,908278,walk,-0.0317,0.498,1.1304,-5.7373,5.9204,-5.188
2025-05-29 06:15:01.519,908328,walk,-0.1055,0.1172,0.8677,-9.8877,5.127,-4.5776
2025-05-29 06:15:01.569,908378,walk,0.041,0.0479,0.4395,-5.8594,-1.8311,-4.9438
2025-05-29 06:15:01.619,908428,walk,0.1748,-0.2656,1.3291,-1.2207,11.2305,4.8828
2025-05-29 06:15:01.670,908478,walk,0.0923,-0.061,0.7183,-3.1128,2.1362,1.3428
2025-05-29 06:15:01.719,908528,walk,0.0239,-0.0786,0.7339,-3.3569,-7.2632,3.7231
2025-05-29 06:15:01.769,908579,walk,-0.1768,0.2725,1.1279,-2.5024,20.6909,-1.8921
2025-05-29 06:15:01.819,908628,walk,-0.0278,-0.061,0.7979,-10.8643,2.7466,-4.5776
2025-05-29 06:15:01.869,908678,walk,0.0132,0.1709,0.6626,-3.9673,-2.9907,-5.4321
2025-05-29 06:15:01.919,908728,walk,0.0234,0.0396,1.7183,-3.0518,11.9629,1.6479
2025-05-29 06:15:01.971,908778,walk,0.106,-0.0122,0.7754,-2.1362,8.2397,2.3193
2025-05-29 06:15:02.019,908828,walk,0.0054,-0.1431,0.9175,-1.4038,-2.3193,2.5635
2025-05-29 06:15:02.069,908878,walk,-0.0366,-0.1431,1.2046,-3.479,11.8408,-2.1973
2025-05-29 06:15:02.119,908928,walk,-0.0137,0.063,0.9561,-6.7139,2.0142,-7.6904
2025-05-29 06:15:02.169,908978,walk,0.02,-0.0752,0.873,-4.8828,-1.4648,-2.8687
2025-05-29 06:15:02.221,909028,walk,0.0669,-0.4385,1.4956,-10.6812,19.5923,1.3428
2025-05-29 06:15:03.716,909078,walk,0.1172,0.2793,0.7661,3.2349,5.249,-0.6104
2025-05-29 06:15:03.717,909128,walk,-0.0044,-0.0229,1.0283,-3.7842,-0.9766,2.8076
2025-05-29 06:15:03.718,909178,walk,0.2261,-0.4507,1.0293,-13.4277,6.2866,-1.2817
2025-05-29 06:15:03.719,909228,walk,-0.0806,-0.042,0.8472,-6.897,4.9438,-5.7373
2025-05-29 06:15:03.721,909278,walk,0.0176,0.1611,0.8042,-10.1929,-1.9531,-6.2866
2025-05-29 06:15:03.722,909328,walk,0.0796,-0.4834,1.4771,-15.686,20.3857,1.3428
2025-05-29 06:15:03.723,909378,walk,0.1406,-0.2559,0.7827,-1.5869,2.4414,3.2959
2025-05-29 06:15:03.724,909428,walk,-0.0356,-0.0547,0.8555,-2.6855,-4.2725,4.6997
2025-05-29 06:15:03.725,909478,walk,0.3467,-0.6533,0.8867,-14.6484,3.9062,-0.7324
2025-05-29 06:15:03.920,909528,walk,-0.0029,0.0718,0.457,-8.1177,5.6763,-7.5073
2025-05-29 06:15:03.921,909578,walk,-0.0078,0.1426,0.8594,-6.7749,2.2583,-5.188
2025-05-29 06:15:03.923,909628,walk,-0.0908,0.0303,1.6831,-23.0103,23.2544,-3.479
2025-05-29 06:15:03.924,909678,walk,0.0171,0.2925,1.2183,-3.54,7.4463,0.0
2025-05-29 06:15:03.925,909728,walk,0.0122,-0.0049,1.187,-2.9297,-4.2725,3.3569
2025-05-29 06:15:03.926,909778,walk,-0.1328,0.4878,1.0776,-2.6245,17.0898,-4.2114
2025-05-29 06:15:03.927,909828,walk,0.0161,-0.1416,0.7441,-12.5122,3.9062,-6.7749
2025-05-29 06:15:03.928,909878,walk,0.0469,0.0278,0.8682,-10.9863,0.4883,-4.0283
2025-05-29 06:15:03.929,909928,walk,-0.0654,-0.2832,1.6914,-12.5732,18.8599,1.4648
2025-05-29 06:15:03.930,909978,walk,0.0,0.4126,0.7168,-1.4648,6.8359,-0.4883
2025-05-29 06:15:03.935,910646,walk,0.1519,-0.1851,0.8296,-3.479,-5.127,2.9297
2025-05-29 06:15:03.936,910695,walk,-0.0425,-0.2441,0.2065,-1.77,-2.9907,-8.4839
2025-05-29 06:15:03.938,910745,walk,-0.0415,0.2812,1.0439,-5.7373,2.2583,-4.8218
2025-05-29 06:15:03.987,910795,walk,0.0742,-0.2793,0.8525,-2.5024,-9.3994,-1.709
2025-05-29 06:15:04.036,910845,walk,-0.1753,-0.1699,-0.0439,-12.8784,3.9062,4.8828
2025-05-29 06:15:04.086,910895,walk,-0.0049,0.1035,0.8945,-3.7231,3.0518,4.2114
2025-05-29 06:15:04.136,910945,walk,0.1929,0.0444,0.9868,-4.0283,-8.8501,1.1597
2025-05-29 06:15:04.186,910995,walk,0.0049,-0.1753,0.0044,0.3052,-4.1504,-6.7749
2025-05-29 06:15:04.238,911045,walk,0.0566,0.2031,0.7603,-5.7983,1.0376,-7.5073
2025-05-29 06:15:04.286,911095,walk,0.0825,-0.1929,0.8252,-5.249,-9.8267,-3.6621
2025-05-29 06:15:04.337,911145,walk,0.0098,-0.0947,-0.0962,-11.9629,-2.3193,6.897
2025-05-29 06:15:04.386,911195,walk,0.0293,-0.0454,1.0327,-5.7983,2.8687,4.9438
2025-05-29 06:15:04.436,911245,walk,0.1904,-0.1519,1.0283,-3.1128,-10.6201,4.1504
2025-05-29 06:15:04.486,911295,walk,0.0835,-0.0576,0.2871,-3.1738,3.9062,-9.8877
2025-05-29 06:15:04.537,911345,walk,0.0605,0.4834,0.6562,-4.1504,-0.061,-6.2256
2025-05-29 06:15:04.586,911395,walk,0.0635,-0.333,0.7715,-7.6904,-8.8501,-2.0142
2025-05-29 06:15:04.636,911445,walk,0.0547,-0.3184,-0.5444,-14.7705,-2.4414,5.5542
2025-05-29 06:15:04.686,911495,walk,0.0791,-0.1489,0.8809,-4.0894,3.54,5.249
2025-05-29 06:15:04.736,911545,walk,0.1436,-0.0996,1.1558,-3.8452,-13.3667,2.3193
2025-05-29 06:15:04.786,911595,walk,-0.0488,-0.0806,0.3662,-2.2583,1.2207,-9.8267
2025-05-29 06:15:04.838,911645,walk,0.0342,0.2139,0.6333,-6.2256,-1.5869,-6.7139
2025-05-29 06:15:04.886,911695,walk,0.1118,0.0376,0.7495,-6.958,-14.0991,-4.5166
2025-05-29 06:15:04.938,911745,walk,-0.0029,0.4453,-0.6953,-11.5967,-9.8267,4.2114
2025-05-29 06:15:04.988,911795,walk,-0.0254,0.0723,0.644,-3.2349,-1.0376,0.9155
2025-05-29 06:15:05.037,911845,walk,0.127,-0.0859,0.7954,-6.1035,-15.3809,0.6714
2025-05-29 06:15:05.086,911895,walk,-0.1104,-0.1763,0.604,-3.2959,8.3008,-6.5308
2025-05-29 06:15:05.136,911945,walk,-0.0049,0.2368,1.0352,-6.5918,-0.4272,-4.8218
2025-05-29 06:15:05.186,911995,walk,0.0825,0.042,0.877,-5.0049,-11.4746,-6.5308
2025-05-29 06:15:05.237,912045,walk,-0.0117,0.394,-0.6587,-14.8315,-12.5122,1.709
2025-05-29 06:15:05.286,912095,walk,0.0015,0.0835,0.5454,-2.3804,2.8076,0.6714
2025-05-29 06:15:05.336,912145,walk,0.1211,0.1558,0.7993,-3.479,-10.1929,-3.7842
2025-05-29 06:15:05.386,912195,walk,-0.1484,-0.3022,0.3911,-4.1504,3.2349,-11.5967
2025-05-29 06:15:05.436,912245,walk,-0.0122,-0.2134,0.9248,-11.5967,0.3052,-11.4136
2025-05-29 06:15:05.486,912295,walk,-0.0156,-0.0742,0.9253,-4.2114,-8.606,-13.4277
2025-05-29 06:15:05.536,912345,walk,-0.2563,0.668,-0.7656,-6.6528,-24.7803,-10.0098
2025-05-29 06:15:05.586,912395,walk,-0.0537,-0.1323,0.5942,-4.8828,5.188,-9.8877
2025-05-29 06:15:05.636,912445,walk,0.0991,0.1333,1.0942,-2.1362,-4.2114,-8.3008
2025-05-29 06:15:05.686,912495,walk,-0.0415,-0.3433,0.8257,-8.2397,8.9111,-16.5405
2025-05-29 06:15:05.736,912545,walk,-0.0825,-0.064,1.1514,-6.958,0.3052,-24.5972
2025-05-29 06:15:05.786,912595,walk,-0.0469,-0.0215,0.9048,-1.77,-3.8452,-26.5503
2025-05-29 06:15:05.837,912645,walk,0.334,-0.0498,-0.9453,-9.2163,-25.1465,-19.2871
2025-05-29 06:15:05.886,912695,walk,-0.0073,-0.02,0.2422,-0.6714,0.061,-19.4092
2025-05-29 06:15:05.939,912745,walk,0.063,0.0508,0.7554,-1.4038,-1.0986,-13.9771
2025-05-29 06:15:05.987,912795,walk,-0.0063,-0.2021,0.3188,-1.8311,-10.0098,-25.1465
2025-05-29 06:15:06.036,912845,walk,-0.0249,0.0635,0.854,-2.8076,1.8311,-30.2124
2025-05-29 06:15:06.086,912895,walk,0.0664,-0.2129,0.9429,-9.2773,-3.6011,-27.1606
2025-05-29 06:15:06.136,912945,walk,0.04,-0.0273,0.5581,-0.7324,-12.5122,-13.3667
2025-05-29 06:15:06.186,912995,walk,0.0254,0.0728,1.0127,0.7324,5.7983,-24.292
2025-05-29 06:15:06.236,913045,walk,-0.001,0.0698,0.7236,-0.7324,-3.9062,-17.334
2025-05-29 06:15:06.286,913095,walk,0.1157,-0.1387,-0.1621,2.0142,-15.0757,-23.2544
2025-05-29 06:15:06.336,913145,walk,-0.0801,0.2095,0.8774,-2.2583,-0.1831,-30.1514
2025-05-29 06:15:06.386,913195,walk,-0.0176,0.0449,0.8213,-7.5684,-1.8921,-28.0151
2025-05-29 06:15:06.455,913245,walk,0.1279,0.2007,0.7988,1.9531,-9.9487,-18.1885
2025-05-29 06:15:06.486,913295,walk,0.041,-0.083,1.082,-1.8311,2.6245,-18.9209
2025-05-29 06:15:06.539,913345,walk,0.0337,-0.0146,0.7314,-1.0986,-6.4087,-15.564
2025-05-29 06:15:06.587,913395,walk,0.0522,-0.3032,0.063,3.0518,-13.5498,-20.813
2025-05-29 06:15:06.636,913445,walk,0.0039,0.127,0.7324,-2.6855,2.5024,-29.7852
2025-05-29 06:15:06.688,913495,walk,0.0654,0.0391,0.8384,-5.4932,-1.3428,-27.2827
2025-05-29 06:15:06.736,913545,walk,0.189,-0.4092,0.7622,-2.1362,-7.8125,-16.3574
2025-05-29 06:15:06.786,913595,walk,-0.0298,-0.0444,1.3008,-3.6621,2.9297,-20.752
2025-05-29 06:15:06.836,913645,walk,0.0327,0.0078,0.7666,2.6245,-4.6997,-17.6392
2025-05-29 06:15:08.219,913695,walk,0.1113,-0.7334,0.1475,-2.0142,-11.7188,-17.4561
2025-05-29 06:15:08.221,913745,walk,0.0649,-0.0918,0.8486,-1.0986,2.1362,-31.7383
2025-05-29 06:15:08.222,913795,walk,0.0068,-0.0708,0.8184,-6.897,-2.8687,-27.6489
2025-05-29 06:15:08.223,913845,walk,0.1309,-0.5015,0.7559,1.2207,-4.8218,-14.8315
2025-05-29 06:15:08.224,913895,walk,-0.0088,-0.167,1.085,-1.4038,1.9531,-17.8223
2025-05-29 06:15:08.225,913945,walk,0.0342,0.0259,0.8477,-0.4883,-5.127,-16.6016
2025-05-29 06:15:08.225,913995,walk,0.0806,-0.2251,-0.0732,0.7935,-15.625,-15.686
2025-05-29 06:15:08.226,914045,walk,-0.0278,0.0156,0.7715,-1.4038,-1.8921,-31.4941
2025-05-29 06:15:08.226,914095,walk,0.0039,0.0688,0.9063,-9.1553,-2.7466,-29.9683
2025-05-29 06:15:08.332,914145,walk,0.0376,-0.5845,0.9233,-2.5024,-2.8076,-16.8457
2025-05-29 06:15:08.333,914195,walk,-0.0161,-0.1411,1.1387,-0.1831,2.8687,-20.5078
2025-05-29 06:15:08.335,914245,walk,0.0093,0.0356,0.7446,1.9531,-5.127,-16.3574
2025-05-29 06:15:08.335,914295,walk,0.0239,-0.2314,0.0098,3.9062,-15.9912,-18.5547
2025-05-29 06:15:08.336,914345,walk,0.0044,-0.001,1.0186,-0.1831,1.2817,-32.2266
2025-05-29 06:15:08.337,914395,walk,0.1025,0.0435,0.7837,-5.8594,-3.9673,-30.6396
2025-05-29 06:15:08.338,914445,walk,-0.1909,0.1509,1.1553,-1.1597,1.709,-19.7144
2025-05-29 06:15:08.339,914495,walk,-0.0547,0.1885,1.3208,-0.7324,3.9062,-22.0337
2025-05-29 06:15:08.341,914545,walk,0.0205,0.0889,0.8979,0.2441,-7.2021,-16.6626
2025-05-29 06:15:08.345,914595,walk,0.0967,-0.4956,0.106,2.9297,-13.3667,-19.165
2025-05-29 06:15:08.347,915148,walk,0.0981,0.1187,0.6348,-0.4272,-8.8501,-18.7988
2025-05-29 06:15:08.388,915197,walk,0.1377,0.2324,0.4614,-2.3193,-2.0752,-32.1045
2025-05-29 06:15:08.438,915247,walk,0.0225,0.3813,0.9492,-2.0142,3.9062,-33.5693
2025-05-29 06:15:08.488,915297,walk,0.1826,0.0469,0.9951,-8.7891,-4.9438,-31.6162
2025-05-29 06:15:08.538,915347,walk,0.0581,0.6304,1.4375,6.2866,3.6621,-27.6489
2025-05-29 06:15:08.588,915397,walk,-0.0176,-0.0581,1.0063,-0.061,-0.3662,-22.8882
2025-05-29 06:15:08.638,915447,walk,0.0322,0.0576,0.7563,2.3193,-6.5918,-19.5923
2025-05-29 06:15:08.688,915497,walk,0.0454,-0.0493,0.5347,-2.5635,-2.8687,-29.9683
2025-05-29 06:15:08.738,915547,walk,0.0596,0.1245,0.9038,-1.77,4.0283,-35.9497
2025-05-29 06:15:08.788,915597,walk,0.04,0.022,1.2075,-8.0566,-4.2114,-31.311
2025-05-29 06:15:08.838,915647,walk,-0.0469,0.5703,1.6162,0.6714,4.2114,-26.2451
2025-05-29 06:15:08.888,915697,walk,-0.0186,0.0098,0.999,2.7466,-2.5024,-24.7803
2025-05-29 06:15:08.938,915747,walk,0.0156,0.1255,0.7168,2.6245,-7.2021,-18.4326
2025-05-29 06:15:08.988,915797,walk,0.0977,-0.0879,0.1904,-0.3052,-4.6997,-30.3955
2025-05-29 06:15:09.038,915847,walk,-0.0127,0.1963,0.811,0.2441,6.4697,-35.0342
2025-05-29 06:15:09.088,915897,walk,0.1221,-0.0986,0.9624,-7.6294,-3.9673,-31.6162
2025-05-29 06:15:09.139,915947,walk,0.0049,0.4062,1.4175,0.7324,-0.1831,-26.062
2025-05-29 06:15:09.188,915997,walk,-0.0205,0.0937,1.0449,2.3193,-0.6104,-24.292
2025-05-29 06:15:09.239,916047,walk,0.0225,-0.0176,0.7837,1.5869,-6.6528,-19.2871
2025-05-29 06:15:09.288,916097,walk,0.0371,0.0229,0.7358,-2.9297,-1.0986,-29.7852
2025-05-29 06:15:09.340,916147,walk,-0.0337,0.2139,1.2832,-4.9438,7.7515,-35.6445
2025-05-29 06:15:09.388,916197,walk,0.1646,0.1592,0.8545,-3.7231,-6.958,-31.6772
2025-05-29 06:15:09.438,916247,walk,-0.0635,0.5083,1.3491,4.0894,0.1221,-24.0479
2025-05-29 06:15:09.488,916297,walk,-0.0615,0.1006,1.1665,-0.4272,0.4883,-26.3062
2025-05-29 06:15:09.538,916347,walk,0.0737,0.0645,0.623,3.418,-8.1787,-21.2402
2025-05-29 06:15:09.588,916397,walk,0.1177,-0.0845,0.5679,-1.0376,-5.5542,-27.5269
2025-05-29 06:15:09.638,916447,walk,0.0024,0.1514,1.0498,1.3428,3.6011,-34.1187
2025-05-29 06:15:09.688,916497,walk,0.2012,0.3584,0.96,-3.9673,-5.7983,-33.5083
2025-05-29 06:15:09.738,916547,walk,-0.0176,0.5,1.4805,6.0425,4.7607,-26.7944
2025-05-29 06:15:09.788,916597,walk,-0.0469,0.0664,1.1401,1.4648,-1.0376,-23.8647
2025-05-29 06:15:09.838,916647,walk,0.0605,0.062,0.7388,3.6621,-8.5449,-19.4092
2025-05-29 06:15:09.888,916697,walk,-0.0342,0.0356,0.5615,-0.4272,-5.5542,-30.5786
2025-05-29 06:15:09.939,916747,walk,0.0513,0.4165,0.9189,0.6104,3.479,-34.79
2025-05-29 06:15:09.988,916797,walk,0.2373,0.1685,0.8955,-5.6152,-7.019,-32.5317
2025-05-29 06:15:10.039,916847,walk,-0.0063,0.5044,1.397,4.8218,8.9111,-28.8086
2025-05-29 06:15:10.088,916897,walk,-0.0356,0.062,1.1543,4.6387,-0.1831,-25.2686
2025-05-29 06:15:10.140,916947,walk,0.064,0.0522,0.7119,0.061,-9.4604,-18.6768
2025-05-29 06:15:10.188,916997,walk,0.0142,-0.0625,0.3091,2.6855,-6.6528,-30.0293
2025-05-29 06:15:10.240,917047,walk,0.0039,0.3213,0.7534,0.8545,1.77,-34.6069
2025-05-29 06:15:10.288,917097,walk,0.1577,0.1211,0.9536,-7.1411,-5.5542,-33.5083
2025-05-29 06:15:10.343,917147,walk,-0.3296,-0.0859,1.978,-8.1177,16.7847,-29.4189
2025-05-29 06:15:10.388,917197,walk,-0.0537,-0.0093,1.4604,0.4883,3.418,-24.9634
2025-05-29 06:15:10.438,917247,walk,-0.0054,0.2793,0.7822,2.0752,-9.3994,-20.9351
2025-05-29 06:15:10.488,917297,walk,-0.0273,-0.0269,0.1826,4.5166,-8.8501,-30.3345
2025-05-29 06:15:10.538,917347,walk,-0.0107,0.3408,0.8462,5.9204,2.6855,-35.0342
2025-05-29 06:15:10.588,917397,walk,0.2021,0.1538,0.7944,-9.3384,-4.5166,-31.8604
2025-05-29 06:15:10.638,917447,walk,-0.1421,0.0708,1.7256,-0.6104,13.3667,-30.1514
2025-05-29 06:15:10.688,917497,walk,-0.0234,-0.0356,1.1821,2.1973,0.3052,-22.583
2025-05-29 06:15:10.738,917547,walk,-0.085,0.3066,0.7881,-1.1597,-8.1787,-20.813
2025-05-29 06:15:10.788,917597,walk,0.0186,-0.1475,-0.1011,6.2866,-10.1929,-29.2358
2025-05-29 06:15:10.838,917647,walk,0.0068,0.2695,0.707,1.3428,3.3569,-32.8369
2025-05-29 06:15:10.888,917697,walk,0.1772,0.1504,0.9365,-8.4839,-5.6152,-31.8604
2025-05-29 06:15:10.938,917747,walk,-0.0537,-0.0024,1.7759,-1.8921,11.2915,-29.541
2025-05-29 06:15:10.989,917797,walk,-0.0317,0.0469,1.4438,-0.6104,1.4038,-22.8882
2025-05-29 06:15:11.039,917847,walk,0.0288,0.1343,0.7979,-2.5635,-7.9956,-17.5171
2025-05-29 06:15:11.088,917897,walk,-0.0186,-0.3003,-0.0283,3.7842,-10.8032,-26.5503
2025-05-29 06:15:11.138,917947,walk,0.0791,0.2407,0.7441,5.127,4.1504,-30.1514
2025-05-29 06:15:11.188,917997,walk,0.2202,0.1196,1.0361,-7.4463,-4.8828,-27.0386
2025-05-29 06:15:11.238,918047,walk,-0.0986,-0.1489,1.6157,-1.77,13.4277,-24.9634
2025-05-29 06:15:11.290,918097,walk,-0.0024,-0.1528,1.3311,-0.1221,2.6855,-20.1416
2025-05-29 06:15:11.338,918147,walk,0.0161,0.0366,0.9995,-1.6479,-4.8828,-16.0522
2025-05-29 06:15:11.388,918197,walk,0.0415,-0.3257,0.042,2.9907,-12.5732,-23.7427
2025-05-29 06:15:11.438,918247,walk,-0.0103,0.2075,0.7612,-0.9766,3.6621,-30.9448
2025-05-29 06:15:11.489,918297,walk,0.251,-0.0278,0.9219,-4.5166,-5.249,-26.001
2025-05-29 06:15:11.538,918347,walk,-0.0918,0.1938,1.5933,3.418,13.4888,-24.5972
2025-05-29 06:15:11.588,918397,walk,-0.0312,-0.1802,1.4375,-1.1597,0.061,-16.9678
2025-05-29 06:15:11.638,918447,walk,-0.0391,0.1387,1.0562,-2.0752,-7.7515,-15.3809
2025-05-29 06:15:11.688,918497,walk,0.1094,-0.2373,-0.1235,8.0566,-17.5781,-17.6392
2025-05-29 06:15:11.738,918547,walk,0.0786,0.2407,0.603,5.127,1.4648,-15.0757
2025-05-29 06:15:11.788,918597,walk,0.1172,0.0991,1.1387,-3.7231,-5.4932,-6.958
2025-05-29 06:15:11.838,918647,walk,-0.1143,0.2461,2.0156,-5.6152,20.9351,-8.4839
2025-05-29 06:15:11.888,918697,walk,0.0439,-0.1226,1.4072,-3.7842,3.1738,0.7324
2025-05-29 06:15:11.938,918747,walk,-0.0254,0.1743,0.8394,-2.5635,-4.0283,2.1973
2025-05-29 06:15:11.989,918797,walk,-0.0742,-0.2573,-0.4092,12.6343,-24.292,-5.0049
2025-05-29 06:15:12.038,918847,walk,0.019,-0.0791,0.5933,-7.9956,0.3052,-6.4087
2025-05-29 06:15:12.088,918897,walk,0.0322,0.0928,1.0757,-1.3428,-1.0376,-4.3945
2025-05-29 06:15:12.138,918947,walk,-0.373,0.7314,2.2773,-4.8218,26.2451,-4.4556
2025-05-29 06:15:12.188,918997,walk,-0.0269,0.0117,1.4707,-6.897,1.6479,4.2114
2025-05-29 06:15:12.238,919047,walk,0.0601,0.0327,1.1401,-1.1597,-6.6528,4.2114
2025-05-29 06:15:12.288,919097,walk,0.126,-0.4458,0.0122,8.4839,-22.7051,-3.1128
2025-05-29 06:15:12.338,919147,walk,0.0679,-0.1958,0.6333,-9.7046,4.9438,-2.4414
2025-05-29 06:15:12.391,919197,walk,0.1147,0.0732,0.8623,-4.7607,-3.6011,-3.2349
2025-05-29 06:15:12.438,919247,walk,-0.1768,0.7295,1.4336,3.7231,14.4653,-4.8218
2025-05-29 06:15:12.488,919297,walk,-0.0264,-0.1001,1.396,-8.9722,-0.9155,5.4321
2025-05-29 06:15:12.541,919347,walk,0.0684,-0.0659,0.8584,-5.7983,-6.5918,4.0894
2025-05-29 06:15:12.590,919397,walk,0.0503,0.188,0.416,4.2114,-14.6484,-10.437
2025-05-29 06:15:12.638,919447,walk,-0.0049,0.2163,0.9502,-9.9487,5.0049,-0.9155
2025-05-29 06:15:12.702,919497,walk,0.0371,0.1562,0.7603,-4.2725,-2.6245,-1.9531
2025-05-29 06:15:12.738,919547,walk,-0.0137,0.2681,1.1631,1.2817,5.3101,-0.7935
2025-05-29 06:15:12.788,919597,walk,0.022,-0.1465,1.2837,-8.8501,-2.6855,4.3335
2025-05-29 06:15:12.838,919647,walk,0.0908,-0.0034,0.8164,-6.5918,-7.019,2.3193
2025-05-29 06:15:12.888,919697,walk,0.043,-0.2451,0.6968,2.5024,-6.2866,-5.0659
2025-05-29 06:15:12.938,919747,walk,-0.0039,-0.0591,1.0503,-9.2163,6.958,-2.4414
2025-05-29 06:15:12.988,919797,walk,0.0991,0.1157,1.1035,-4.8218,-1.8311,-2.6245
2025-05-29 06:15:13.038,919847,walk,-0.0625,-0.2021,0.7778,-3.1128,-2.1973,4.5776
2025-05-29 06:15:13.088,919897,walk,0.0146,0.0444,1.0469,-11.4136,-0.4272,5.0049
2025-05-29 06:15:13.138,919947,walk,0.0923,0.1118,0.9668,-2.1973,-7.6904,3.1128
2025-05-29 06:15:13.188,919997,walk,0.0063,-0.5093,0.9834,-2.5635,0.7324,-1.5259
2025-05-29 06:15:13.239,920047,walk,-0.0039,0.103,1.0181,-5.5542,0.7935,-3.479
2025-05-29 06:15:13.290,920097,walk,0.2119,-0.2036,0.7881,-2.3804,-4.9438,-1.6479
2025-05-29 06:15:13.338,920147,walk,-0.002,-0.2334,0.5337,-2.7466,-0.3052,4.7607
2025-05-29 06:15:13.388,920197,walk,0.0298,0.1211,1.2256,-5.127,2.1362,2.6245
2025-05-29 06:15:13.440,920247,walk,0.1338,-0.0933,0.7661,-4.5166,-10.5591,3.7231
2025-05-29 06:15:14.813,920297,walk,0.1299,0.1113,0.3691,4.2725,2.0142,-5.188
2025-05-29 06:15:14.814,920347,walk,-0.0234,0.249,0.9443,-3.7842,0.3052,-4.3945
2025-05-29 06:15:14.815,920397,walk,0.1255,-0.3467,0.7812,-2.2583,-9.9487,-1.6479
2025-05-29 06:15:14.816,920447,walk,-0.0356,0.0835,0.8916,4.0283,9.7046,1.77
2025-05-29 06:15:14.818,920497,walk,-0.0547,-0.02,1.2837,-3.6011,1.0376,5.6763
2025-05-29 06:15:14.818,920547,walk,0.0996,0.1099,0.6948,-4.2114,-10.9863,1.709
2025-05-29 06:15:14.819,920597,walk,0.1187,0.2676,0.1372,2.0752,0.0,-4.0894
2025-05-29 06:15:14.819,920647,walk,0.0142,0.1235,0.7563,-5.3711,2.9297,-4.3335
2025-05-29 06:15:14.819,920697,walk,0.1631,-0.0771,0.9072,-2.0142,-7.3853,-3.1738
2025-05-29 06:15:14.967,920747,walk,-0.0562,0.2065,1.145,2.9297,12.3291,-0.2441
2025-05-29 06:15:14.968,920797,walk,-0.0312,-0.0566,1.0723,-4.9438,-1.4648,5.6152
2025-05-29 06:15:14.969,920847,walk,0.0225,0.3384,0.7573,-5.188,-9.7656,1.8921
2025-05-29 06:15:14.971,920897,walk,0.1538,-0.1045,-0.2529,6.2866,-7.019,-6.4697
2025-05-29 06:15:14.972,920947,walk,-0.0137,0.1694,1.0903,-5.4932,5.3101,-3.6621
2025-05-29 06:15:14.973,920997,walk,0.1421,0.0503,0.8442,-0.6714,-7.3853,-2.7466
2025-05-29 06:15:14.974,921047,walk,-0.0591,0.0151,1.5205,0.0,13.7939,0.7324
2025-05-29 06:15:14.975,921097,walk,-0.0132,-0.2163,1.1221,-7.3242,-1.2817,7.8735
2025-05-29 06:15:14.976,921147,walk,0.1099,-0.1162,0.7798,-6.7139,-9.1553,3.9062
2025-05-29 06:15:15.119,921197,walk,0.0723,0.0918,0.2759,1.8921,-5.3101,-10.7422
2025-05-29 06:15:15.120,921703,walk,-0.0518,0.1509,0.9722,-2.0142,-1.0986,4.6997
2025-05-29 06:15:15.121,921752,walk,0.1748,0.1899,0.7412,-6.4697,-9.9487,2.5635
2025-05-29 06:15:15.122,921802,walk,-0.168,0.0649,1.2065,1.8921,-0.9155,-9.7656
2025-05-29 06:15:15.123,921852,walk,-0.0498,-0.228,1.1592,-9.3384,5.3101,-1.0986
2025-05-29 06:15:15.124,921902,walk,-0.0308,0.0254,0.8555,-4.9438,-6.2256,-3.0518
2025-05-29 06:15:15.169,921952,walk,0.0498,0.0825,1.1377,-1.8311,-3.6011,3.8452
2025-05-29 06:15:15.307,922002,walk,-0.0112,0.1636,0.8501,-4.0894,0.1221,3.2349
2025-05-29 06:15:15.501,922052,walk,0.2041,0.1294,0.9424,-5.188,-5.249,3.9673
2025-05-29 06:15:15.503,922102,walk,-0.082,0.2432,0.936,5.0049,-2.7466,6.5918
2025-05-29 06:15:15.504,922152,walk,-0.0479,0.0918,1.1787,-5.0659,3.1738,29.7852
2025-05-29 06:15:15.506,922202,walk,0.2148,-0.1904,0.6885,-12.2681,-3.7842,31.8604
2025-05-29 06:15:15.507,922252,walk,-0.1997,0.5991,1.8872,-1.4038,7.1411,39.6729
2025-05-29 06:15:15.508,922302,walk,-0.0244,0.0405,1.0146,-11.7188,-3.54,52.002
2025-05-29 06:15:15.543,922352,walk,0.0645,0.0835,0.7808,-5.6763,-7.7515,54.6875
2025-05-29 06:15:15.708,922402,walk,-0.002,0.1143,0.6362,0.3052,-9.3384,34.1187
2025-05-29 06:15:15.911,922452,walk,0.043,0.0513,0.7622,-6.6528,1.5259,33.6304
2025-05-29 06:15:15.912,922502,walk,0.0444,0.063,1.0371,-10.1929,1.2817,15.1367
2025-05-29 06:15:15.914,922552,walk,0.0273,0.2446,1.0156,-4.2725,0.4272,4.3335
2025-05-29 06:15:15.915,922602,walk,0.0449,0.0869,0.6929,-9.2163,-2.1973,17.0898
2025-05-29 06:15:15.916,922652,walk,0.0327,-0.1694,0.979,-6.0425,-3.1128,10.5591
2025-05-29 06:15:15.917,922702,walk,0.0088,0.6309,1.1484,4.0283,-0.1221,-11.1084
2025-05-29 06:15:15.943,922752,walk,-0.0063,0.0244,1.1841,-11.5356,7.6904,-0.7935
2025-05-29 06:15:15.994,922802,walk,-0.0615,0.0454,1.4868,5.0659,-2.8687,-1.8921
2025-05-29 06:15:16.114,922852,walk,0.0767,0.2217,1.4351,-7.0801,3.2349,-0.9766
2025-05-29 06:15:16.319,922902,walk,0.0005,-0.1274,1.3823,-5.4321,2.9907,6.2256
2025-05-29 06:15:16.321,922952,walk,0.0747,-0.2314,0.9351,-4.5776,-6.5918,3.2959
2025-05-29 06:15:16.322,923002,walk,0.0444,0.542,1.0532,2.6855,1.2207,-8.8501
2025-05-29 06:15:16.324,923052,walk,0.0557,-0.0239,1.0381,-9.6436,3.418,-2.1362
2025-05-29 06:15:16.325,923102,walk,-0.0518,0.0991,1.3218,1.77,-4.2725,-3.54
2025-05-29 06:15:16.343,923152,walk,0.0728,-0.0278,1.1919,-6.0425,0.4272,4.7607
2025-05-29 06:15:16.395,923202,walk,0.0508,-0.209,0.7852,-5.0049,2.3193,4.2725
2025-05-29 06:15:16.523,923252,walk,0.1274,-0.1138,0.8857,-3.2349,-5.4932,1.5259
2025-05-29 06:15:16.728,923302,walk,-0.063,0.2578,1.3013,3.1128,-1.1597,-7.0801
2025-05-29 06:15:16.730,923352,walk,-0.0029,0.1152,1.2725,-9.5825,4.5776,-0.7935
2025-05-29 06:15:16.731,923402,walk,0.1401,-0.1152,1.0562,-0.7324,-3.418,-3.2349
2025-05-29 06:15:16.734,923452,walk,0.0557,0.0244,1.2056,-3.8452,-0.2441,0.6104
2025-05-29 06:15:16.736,923502,walk,0.0815,0.1035,0.6538,-3.8452,-2.1362,3.9062
2025-05-29 06:15:16.744,923552,walk,0.0332,0.0908,0.9121,-5.8594,-7.9346,1.9531
2025-05-29 06:15:16.815,923602,walk,-0.1372,0.1504,1.2251,1.1597,0.7324,-8.1787
2025-05-29 06:15:16.896,923652,walk,0.0,-0.1138,1.1528,-6.0425,5.0659,-1.0376
2025-05-29 06:15:17.060,923702,walk,0.1172,-0.0142,0.7959,-1.709,-8.9722,-3.54
2025-05-29 06:15:17.062,923752,walk,-0.0718,0.0249,1.168,-5.3711,3.479,2.9297
2025-05-29 06:15:17.063,923802,walk,0.019,-0.0029,0.7407,-4.2114,0.7324,4.4556
2025-05-29 06:15:17.066,923852,walk,0.0674,-0.1567,1.0098,-6.0425,-7.8125,2.5024
2025-05-29 06:15:17.094,923902,walk,-0.1016,0.2939,1.2437,4.2114,4.8218,-9.6436
2025-05-29 06:15:17.143,923952,walk,0.0386,0.2007,0.8389,-6.4697,1.3428,-3.1128
2025-05-29 06:15:17.193,924002,walk,0.1963,-0.4526,0.7358,-1.8311,-10.1929,-0.6714
2025-05-29 06:15:17.243,924052,walk,-0.0571,0.1475,0.9995,-4.2725,9.8877,0.5493
2025-05-29 06:15:17.293,924102,walk,-0.001,-0.1055,0.7734,-4.5166,1.8921,3.418
2025-05-29 06:15:17.343,924152,walk,0.0366,-0.0244,0.9741,-6.0425,-10.3149,4.3945
2025-05-29 06:15:17.394,924202,walk,-0.0786,0.4683,0.9131,4.3335,4.8828,-7.9956
2025-05-29 06:15:17.443,924252,walk,-0.0088,0.1348,1.0254,-6.6528,2.4414,-3.7842
2025-05-29 06:15:17.493,924302,walk,0.2192,-0.4238,0.8438,1.5869,-10.9863,-2.0752
2025-05-29 06:15:17.543,924352,walk,-0.0186,0.0239,1.271,-7.2021,10.0098,3.3569
2025-05-29 06:15:17.593,924402,walk,-0.0083,-0.0981,0.8228,-2.9297,-1.2207,5.4932
2025-05-29 06:15:17.643,924452,walk,0.0771,-0.0122,0.9526,-8.2397,-10.3149,2.9907
2025-05-29 06:15:17.694,924502,walk,-0.0264,0.5269,0.8042,5.9814,5.6763,-7.3853
2025-05-29 06:15:17.743,924552,walk,0.019,0.1733,0.7534,-9.1553,4.0283,-4.5776
2025-05-29 06:15:17.794,924602,walk,0.1733,-0.4717,1.0283,-1.5259,-8.2397,-2.0752
2025-05-29 06:15:17.843,924652,walk,-0.0356,0.0815,1.2617,-9.0942,12.2681,2.8687
2025-05-29 06:15:17.893,924702,walk,-0.0513,-0.1104,0.8579,-3.2349,1.0986,3.6621
2025-05-29 06:15:17.946,924752,walk,0.105,-0.1494,0.7554,-4.2114,-13.3057,4.6997
2025-05-29 06:15:17.993,924802,walk,0.1343,0.2036,0.4126,5.3101,5.127,-5.8594
2025-05-29 06:15:18.044,924852,walk,0.022,0.2744,0.7021,-6.2256,3.3569,-6.2866
2025-05-29 06:15:18.093,924902,walk,0.0615,-0.3926,1.0264,-0.8545,-11.1694,-2.1973
2025-05-29 06:15:18.144,924952,walk,0.0483,0.0063,0.896,-9.2773,11.7798,2.8687
2025-05-29 06:15:18.194,925002,walk,-0.0532,-0.0811,0.7681,0.4272,-0.4272,5.188
2025-05-29 06:15:18.245,925052,walk,0.019,0.1021,0.627,-4.1504,-13.4277,4.1504
2025-05-29 06:15:18.293,925102,walk,0.1523,0.4414,0.2769,4.6997,3.1738,-7.5073
2025-05-29 06:15:18.343,925152,walk,0.0391,0.0088,0.7778,-7.019,2.6245,-4.1504
2025-05-29 06:15:18.393,925202,walk,0.1855,-0.2441,0.7549,-0.3662,-11.0474,-3.418
2025-05-29 06:15:18.443,925252,walk,0.0396,-0.0459,1.2788,-5.7983,14.7705,2.2583
2025-05-29 06:15:18.494,925302,walk,-0.082,-0.0122,0.7993,0.4272,-1.3428,5.6763
2025-05-29 06:15:18.543,925352,walk,0.0444,0.3574,0.7905,-5.4932,-10.9863,2.9907
2025-05-29 06:15:18.593,925402,walk,0.1582,0.6631,0.3643,7.7515,5.9814,-9.3384
2025-05-29 06:15:18.643,925452,walk,0.0454,0.4141,0.8867,-6.897,3.1738,-5.8594
2025-05-29 06:15:18.698,925502,walk,0.127,-0.3877,0.7271,-2.6245,-11.9629,-1.5259
2025-05-29 06:15:18.744,925552,walk,-0.1089,0.2393,1.2197,-5.127,12.0239,1.4038
2025-05-29 06:15:18.794,925602,walk,-0.0508,-0.0791,0.9941,-5.0049,-2.5635,5.7373
2025-05-29 06:15:18.843,925652,walk,0.0625,0.2998,0.8423,-8.0566,-12.6953,2.0142
2025-05-29 06:15:18.899,925702,walk,0.1646,0.5112,0.0151,7.2632,1.6479,-6.3477
2025-05-29 06:15:18.947,925752,walk,0.0073,0.2017,0.7998,-7.7515,1.9531,-3.1128
2025-05-29 06:15:18.993,925802,walk,0.1426,-0.0942,0.8286,-3.7231,-10.7422,-4.2725
2025-05-29 06:15:19.047,925852,walk,-0.0215,-0.1382,1.1304,-15.2588,12.0239,1.8921
2025-05-29 06:15:19.093,925902,walk,-0.0889,-0.1104,1.0503,-2.8076,2.8687,5.4321
2025-05-29 06:15:19.143,925952,walk,0.0044,0.228,0.8394,-5.6763,-13.3667,2.3804
2025-05-29 06:15:19.193,926002,walk,0.1807,0.0278,0.1465,5.0659,3.6011,-4.2725
2025-05-29 06:15:19.244,926052,walk,0.0137,-0.0186,0.7163,-8.5449,-0.3662,-2.3193
2025-05-29 06:15:19.293,926102,walk,0.0757,-0.1108,0.752,-2.6245,-8.9722,-2.9907
2025-05-29 06:15:19.343,926152,walk,0.0698,-0.2339,0.7769,-17.2119,11.5967,6.6528
2025-05-29 06:15:19.393,926202,walk,-0.0952,-0.21,0.9922,-6.0425,5.6763,2.5635
2025-05-29 06:15:19.443,926252,walk,0.0723,0.1426,0.916,-5.9204,-10.6201,3.7231
2025-05-29 06:15:19.494,926302,walk,0.1455,-0.0649,0.6318,1.709,10.0708,-2.8076
2025-05-29 06:15:19.543,926352,walk,-0.0684,0.0381,0.9087,-10.498,1.709,-4.8218
2025-05-29 06:15:19.593,926402,walk,0.1504,-0.5762,1.1675,1.0376,-7.4463,-1.709
2025-05-29 06:15:19.643,926452,walk,0.0352,-0.7158,0.916,-17.5171,14.0381,4.6387
2025-05-29 06:15:19.693,926502,walk,-0.0542,-0.3203,1.3066,-5.8594,3.1738,3.2349
2025-05-29 06:15:19.744,926552,walk,-0.0176,0.0049,1.0566,-5.6763,-11.0474,2.3193
2025-05-29 06:15:19.793,926602,walk,0.0742,0.0474,0.8052,0.1831,8.9722,-3.7231
2025-05-29 06:15:19.843,926652,walk,0.0293,-0.0566,0.8179,-6.958,0.8545,-2.3193
2025-05-29 06:15:19.893,926702,walk,-0.0454,-0.1929,1.0986,2.9907,-9.3384,-3.9673
2025-05-29 06:15:19.947,926752,walk,0.0449,0.249,1.8296,-6.5308,15.2588,3.54
